%time,field.header.seq,field.header.stamp,field.header.frame_id,field.orientation.x,field.orientation.y,field.orientation.z,field.orientation.w,field.orientation_covariance0,field.orientation_covariance1,field.orientation_covariance2,field.orientation_covariance3,field.orientation_covariance4,field.orientation_covariance5,field.orientation_covariance6,field.orientation_covariance7,field.orientation_covariance8,field.angular_velocity.x,field.angular_velocity.y,field.angular_velocity.z,field.angular_velocity_covariance0,field.angular_velocity_covariance1,field.angular_velocity_covariance2,field.angular_velocity_covariance3,field.angular_velocity_covariance4,field.angular_velocity_covariance5,field.angular_velocity_covariance6,field.angular_velocity_covariance7,field.angular_velocity_covariance8,field.linear_acceleration.x,field.linear_acceleration.y,field.linear_acceleration.z,field.linear_acceleration_covariance0,field.linear_acceleration_covariance1,field.linear_acceleration_covariance2,field.linear_acceleration_covariance3,field.linear_acceleration_covariance4,field.linear_acceleration_covariance5,field.linear_acceleration_covariance6,field.linear_acceleration_covariance7,field.linear_acceleration_covariance8
1702028661443589330,35,1702028661442937374,base_link,-0.14983440543675564,0.22886722330637285,-0.8639894437138342,-0.42271939415468507,0.0,0.0,0.0,0.0,0.0,0.0,0.0,0.0,0.0,-0.012284998781979084,0.002210000529885292,0.025508111342787743,0.0,0.0,0.0,0.0,0.0,0.0,0.0,0.0,0.0,4.284237282802731,-2.490403756585625,8.454773801458398,0.0,0.0,0.0,0.0,0.0,0.0,0.0,0.0,0.0
1702028661444961284,36,1702028661444550514,base_link,-0.14979249006391676,0.22889018579593068,-0.8640208816090011,-0.4226575551322373,0.0,0.0,0.0,0.0,0.0,0.0,0.0,0.0,0.0,-0.012284998781979084,0.002210000529885292,0.025508111342787743,0.0,0.0,0.0,0.0,0.0,0.0,0.0,0.0,0.0,4.284237282802731,-2.490403756585625,8.454773801458398,0.0,0.0,0.0,0.0,0.0,0.0,0.0,0.0,0.0
1702028661448301017,37,1702028661447937965,base_link,-0.14979249006391676,0.22889018579593068,-0.8640208816090011,-0.4226575551322373,0.0,0.0,0.0,0.0,0.0,0.0,0.0,0.0,0.0,-0.006957557983696461,-0.003116622567176819,0.028703901916742325,0.0,0.0,0.0,0.0,0.0,0.0,0.0,0.0,0.0,4.316485197561429,-2.4630884330427234,8.446369096259303,0.0,0.0,0.0,0.0,0.0,0.0,0.0,0.0,0.0
1702028661451441262,38,1702028661451153993,base_link,-0.1497774394397813,0.2289103471493515,-0.8640534377243761,-0.42258540954405144,0.0,0.0,0.0,0.0,0.0,0.0,0.0,0.0,0.0,-0.006957557983696461,-0.003116622567176819,0.028703901916742325,0.0,0.0,0.0,0.0,0.0,0.0,0.0,0.0,0.0,4.316485197561429,-2.4630884330427234,8.446369096259303,0.0,0.0,0.0,0.0,0.0,0.0,0.0,0.0,0.0
1702028661454865016,39,1702028661454584121,base_link,-0.1497774394397813,0.2289103471493515,-0.8640534377243761,-0.42258540954405144,0.0,0.0,0.0,0.0,0.0,0.0,0.0,0.0,0.0,-0.006956488825380802,-0.008443020284175873,0.023377547040581703,0.0,0.0,0.0,0.0,0.0,0.0,0.0,0.0,0.0,4.298385439223909,-2.4982340032614365,8.445277347773503,0.0,0.0,0.0,0.0,0.0,0.0,0.0,0.0,0.0
1702028661458131346,40,1702028661457814455,base_link,-0.14977262179427336,0.228931730172942,-0.8640845374193558,-0.4225119369599763,0.0,0.0,0.0,0.0,0.0,0.0,0.0,0.0,0.0,-0.006956488825380802,-0.008443020284175873,0.023377547040581703,0.0,0.0,0.0,0.0,0.0,0.0,0.0,0.0,0.0,4.298385439223909,-2.4982340032614365,8.445277347773503,0.0,0.0,0.0,0.0,0.0,0.0,0.0,0.0,0.0
1702028661461927722,41,1702028661461447954,base_link,-0.14977262179427336,0.228931730172942,-0.8640845374193558,-0.4225119369599763,0.0,0.0,0.0,0.0,0.0,0.0,0.0,0.0,0.0,-0.0026943348348140717,-0.01589985378086567,0.02124696411192417,0.0,0.0,0.0,0.0,0.0,0.0,0.0,0.0,0.0,4.349637007134802,-2.460584968260358,8.43007589053234,0.0,0.0,0.0,0.0,0.0,0.0,0.0,0.0,0.0
1702028661465173775,42,1702028661464718818,base_link,-0.14979563628357273,0.22895089901050364,-0.8641052403896131,-0.4224510465413605,0.0,0.0,0.0,0.0,0.0,0.0,0.0,0.0,0.0,-0.0026943348348140717,-0.01589985378086567,0.02124696411192417,0.0,0.0,0.0,0.0,0.0,0.0,0.0,0.0,0.0,4.349637007134802,-2.460584968260358,8.43007589053234,0.0,0.0,0.0,0.0,0.0,0.0,0.0,0.0,0.0
1702028661468321902,43,1702028661467977523,base_link,-0.14979563628357273,0.22895089901050364,-0.8641052403896131,-0.4224510465413605,0.0,0.0,0.0,0.0,0.0,0.0,0.0,0.0,0.0,-0.0037586214020848274,-0.011638641357421875,0.013790038414299488,0.0,0.0,0.0,0.0,0.0,0.0,0.0,0.0,0.0,4.335782862887888,-2.4434334393986945,8.442192842687021,0.0,0.0,0.0,0.0,0.0,0.0,0.0,0.0,0.0
1702028661471823809,44,1702028661471367597,base_link,-0.14980521900386926,0.22896962768269963,-0.8641188378072764,-0.4224096827780473,0.0,0.0,0.0,0.0,0.0,0.0,0.0,0.0,0.0,-0.0037586214020848274,-0.011638641357421875,0.013790038414299488,0.0,0.0,0.0,0.0,0.0,0.0,0.0,0.0,0.0,4.335782862887888,-2.4434334393986945,8.442192842687021,0.0,0.0,0.0,0.0,0.0,0.0,0.0,0.0,0.0
1702028661475202782,45,1702028661474782466,base_link,-0.14980521900386926,0.22896962768269963,-0.8641188378072764,-0.4224096827780473,0.0,0.0,0.0,0.0,0.0,0.0,0.0,0.0,0.0,-0.010149335488677025,-0.005246960557997227,0.007398402318358421,0.0,0.0,0.0,0.0,0.0,0.0,0.0,0.0,0.0,4.278386047602463,-2.500936500488323,8.454627694239754,0.0,0.0,0.0,0.0,0.0,0.0,0.0,0.0,0.0
1702028661478538014,46,1702028661478051424,base_link,-0.14979198484306894,0.22900094481324101,-0.8641185710494173,-0.4223979447380517,0.0,0.0,0.0,0.0,0.0,0.0,0.0,0.0,0.0,-0.010149335488677025,-0.005246960557997227,0.007398402318358421,0.0,0.0,0.0,0.0,0.0,0.0,0.0,0.0,0.0,4.278386047602463,-2.500936500488323,8.454627694239754,0.0,0.0,0.0,0.0,0.0,0.0,0.0,0.0,0.0
1702028661481888158,47,1702028661481452226,base_link,-0.14979198484306894,0.22900094481324101,-0.8641185710494173,-0.4223979447380517,0.0,0.0,0.0,0.0,0.0,0.0,0.0,0.0,0.0,-0.015474979765713215,-0.007377262227237225,-0.0011237449944019318,0.0,0.0,0.0,0.0,0.0,0.0,0.0,0.0,0.0,4.3753605573445205,-2.4673432610296078,8.414774936115977,0.0,0.0,0.0,0.0,0.0,0.0,0.0,0.0,0.0
1702028661485114412,48,1702028661484654903,base_link,-0.1497912680621598,0.22903783762834956,-0.8641038246983322,-0.4224083629481946,0.0,0.0,0.0,0.0,0.0,0.0,0.0,0.0,0.0,-0.015474979765713215,-0.007377262227237225,-0.0011237449944019318,0.0,0.0,0.0,0.0,0.0,0.0,0.0,0.0,0.0,4.3753605573445205,-2.4673432610296078,8.414774936115977,0.0,0.0,0.0,0.0,0.0,0.0,0.0,0.0,0.0
1702028661488615168,49,1702028661488171100,base_link,-0.1497912680621598,0.22903783762834956,-0.8641038246983322,-0.4224083629481946,0.0,0.0,0.0,0.0,0.0,0.0,0.0,0.0,0.0,-0.014409107156097889,-0.009507435373961926,-0.004319591447710991,0.0,0.0,0.0,0.0,0.0,0.0,0.0,0.0,0.0,4.366338480903432,-2.438245224578287,8.427932634697736,0.0,0.0,0.0,0.0,0.0,0.0,0.0,0.0,0.0
1702028661491854862,50,1702028661491379261,base_link,-0.14980434675660118,0.2290713465684872,-0.8640838438938816,-0.4224264274352423,0.0,0.0,0.0,0.0,0.0,0.0,0.0,0.0,0.0,-0.014409107156097889,-0.009507435373961926,-0.004319591447710991,0.0,0.0,0.0,0.0,0.0,0.0,0.0,0.0,0.0,4.366338480903432,-2.438245224578287,8.427932634697736,0.0,0.0,0.0,0.0,0.0,0.0,0.0,0.0,0.0
1702028661495170151,51,1702028661494784355,base_link,-0.14980434675660118,0.2290713465684872,-0.8640838438938816,-0.4224264274352423,0.0,0.0,0.0,0.0,0.0,0.0,0.0,0.0,0.0,-0.014408540911972523,-0.00631122849881649,-0.009645987302064896,0.0,0.0,0.0,0.0,0.0,0.0,0.0,0.0,0.0,4.332575589624297,-2.4425911764748744,8.444082964111542,0.0,0.0,0.0,0.0,0.0,0.0,0.0,0.0,0.0
1702028661498491586,52,1702028661498044252,base_link,-0.14981033253701143,0.22909826035130998,-0.8640600199194508,-0.4224584397854444,0.0,0.0,0.0,0.0,0.0,0.0,0.0,0.0,0.0,-0.014408540911972523,-0.00631122849881649,-0.009645987302064896,0.0,0.0,0.0,0.0,0.0,0.0,0.0,0.0,0.0,4.332575589624297,-2.4425911764748744,8.444082964111542,0.0,0.0,0.0,0.0,0.0,0.0,0.0,0.0,0.0
1702028661501932777,53,1702028661501480817,base_link,-0.14981033253701143,0.22909826035130998,-0.8640600199194508,-0.4224584397854444,0.0,0.0,0.0,0.0,0.0,0.0,0.0,0.0,0.0,-0.014407925307750702,0.002211097627878189,-0.004319729283452034,0.0,0.0,0.0,0.0,0.0,0.0,0.0,0.0,0.0,4.436497209578363,-2.387963221334748,8.405660245510521,0.0,0.0,0.0,0.0,0.0,0.0,0.0,0.0,0.0
1702028661505006366,54,1702028661504629611,base_link,-0.1497943570643372,0.22912152590702967,-0.864046559320153,-0.4224790175674073,0.0,0.0,0.0,0.0,0.0,0.0,0.0,0.0,0.0,-0.014407925307750702,0.002211097627878189,-0.004319729283452034,0.0,0.0,0.0,0.0,0.0,0.0,0.0,0.0,0.0,4.436497209578363,-2.387963221334748,8.405660245510521,0.0,0.0,0.0,0.0,0.0,0.0,0.0,0.0,0.0
1702028661508715084,55,1702028661508239507,base_link,-0.1497943570643372,0.22912152590702967,-0.864046559320153,-0.4224790175674073,0.0,0.0,0.0,0.0,0.0,0.0,0.0,0.0,0.0,-0.014407191425561905,0.0032763592898845673,0.007398156449198723,0.0,0.0,0.0,0.0,0.0,0.0,0.0,0.0,0.0,4.518869641210917,-2.3099836216940592,8.383542976167506,0.0,0.0,0.0,0.0,0.0,0.0,0.0,0.0,0.0
1702028661511792514,56,1702028661511383056,base_link,-0.14976623149668045,0.22914222956364932,-0.8640501751028234,-0.4224703651602831,0.0,0.0,0.0,0.0,0.0,0.0,0.0,0.0,0.0,-0.014407191425561905,0.0032763592898845673,0.007398156449198723,0.0,0.0,0.0,0.0,0.0,0.0,0.0,0.0,0.0,4.518869641210917,-2.3099836216940592,8.383542976167506,0.0,0.0,0.0,0.0,0.0,0.0,0.0,0.0,0.0
1702028661515308135,57,1702028661514827251,base_link,-0.14976623149668045,0.22914222956364932,-0.8640501751028234,-0.4224703651602831,0.0,0.0,0.0,0.0,0.0,0.0,0.0,0.0,0.0,-0.010145245119929314,0.00647193007171154,0.011659189127385616,0.0,0.0,0.0,0.0,0.0,0.0,0.0,0.0,0.0,4.418693759194522,-2.310441489287066,8.436646584220318,0.0,0.0,0.0,0.0,0.0,0.0,0.0,0.0,0.0
1702028661518426016,58,1702028661517976760,base_link,-0.1497177445077836,0.22915722441528658,-0.8640678673433604,-0.42244323181047755,0.0,0.0,0.0,0.0,0.0,0.0,0.0,0.0,0.0,-0.010145245119929314,0.00647193007171154,0.011659189127385616,0.0,0.0,0.0,0.0,0.0,0.0,0.0,0.0,0.0,4.418693759194522,-2.310441489287066,8.436646584220318,0.0,0.0,0.0,0.0,0.0,0.0,0.0,0.0,0.0
1702028661521907842,59,1702028661521440029,base_link,-0.1497177445077836,0.22915722441528658,-0.8640678673433604,-0.42244323181047755,0.0,0.0,0.0,0.0,0.0,0.0,0.0,0.0,0.0,-0.017601119354367256,0.012862985953688622,0.01911609061062336,0.0,0.0,0.0,0.0,0.0,0.0,0.0,0.0,0.0,4.434551339229426,-2.3606541800161827,8.414396369443898,0.0,0.0,0.0,0.0,0.0,0.0,0.0,0.0,0.0
1702028661525038860,60,1702028661524643182,base_link,-0.14964017968977208,0.22918176097994944,-0.8640922080308076,-0.42240761484256606,0.0,0.0,0.0,0.0,0.0,0.0,0.0,0.0,0.0,-0.017601119354367256,0.012862985953688622,0.01911609061062336,0.0,0.0,0.0,0.0,0.0,0.0,0.0,0.0,0.0,4.434551339229426,-2.3606541800161827,8.414396369443898,0.0,0.0,0.0,0.0,0.0,0.0,0.0,0.0,0.0
1702028661528546750,61,1702028661528090715,base_link,-0.14964017968977208,0.22918176097994944,-0.8640922080308076,-0.42240761484256606,0.0,0.0,0.0,0.0,0.0,0.0,0.0,0.0,0.0,-0.0186653733253479,0.0181885939091444,0.022311963140964508,0.0,0.0,0.0,0.0,0.0,0.0,0.0,0.0,0.0,4.35532864182087,-2.410582000161464,8.441576087569924,0.0,0.0,0.0,0.0,0.0,0.0,0.0,0.0,0.0
1702028661531799244,62,1702028661531346797,base_link,-0.1495528117091203,0.2291975708443803,-0.8641208472420875,-0.42237139035515736,0.0,0.0,0.0,0.0,0.0,0.0,0.0,0.0,0.0,-0.0186653733253479,0.0181885939091444,0.022311963140964508,0.0,0.0,0.0,0.0,0.0,0.0,0.0,0.0,0.0,4.35532864182087,-2.410582000161464,8.441576087569924,0.0,0.0,0.0,0.0,0.0,0.0,0.0,0.0,0.0
1702028661535213247,63,1702028661534792184,base_link,-0.1495528117091203,0.2291975708443803,-0.8641208472420875,-0.42237139035515736,0.0,0.0,0.0,0.0,0.0,0.0,0.0,0.0,0.0,-0.014403329230844975,0.01712271198630333,0.014855146408081055,0.0,0.0,0.0,0.0,0.0,0.0,0.0,0.0,0.0,4.253941526928929,-2.504502434067559,8.465899186927473,0.0,0.0,0.0,0.0,0.0,0.0,0.0,0.0,0.0
1702028661538568347,64,1702028661538048267,base_link,-0.14947445479713956,0.22920573720331208,-0.8641437918728805,-0.4223477528811345,0.0,0.0,0.0,0.0,0.0,0.0,0.0,0.0,0.0,-0.014403329230844975,0.01712271198630333,0.014855146408081055,0.0,0.0,0.0,0.0,0.0,0.0,0.0,0.0,0.0,4.253941526928929,-2.504502434067559,8.465899186927473,0.0,0.0,0.0,0.0,0.0,0.0,0.0,0.0,0.0
1702028661542031585,65,1702028661541488409,base_link,-0.14947445479713956,0.22920573720331208,-0.8641437918728805,-0.4223477528811345,0.0,0.0,0.0,0.0,0.0,0.0,0.0,0.0,0.0,-0.011206623166799545,0.01179598644375801,0.006333022378385067,0.0,0.0,0.0,0.0,0.0,0.0,0.0,0.0,0.0,4.231945755175822,-2.4943557673679453,8.479907100378377,0.0,0.0,0.0,0.0,0.0,0.0,0.0,0.0,0.0
1702028661545100695,66,1702028661544648408,base_link,-0.14942162337401838,0.22920661697153133,-0.8641532028845293,-0.42234671438185484,0.0,0.0,0.0,0.0,0.0,0.0,0.0,0.0,0.0,-0.011206623166799545,0.01179598644375801,0.006333022378385067,0.0,0.0,0.0,0.0,0.0,0.0,0.0,0.0,0.0,4.231945755175822,-2.4943557673679453,8.479907100378377,0.0,0.0,0.0,0.0,0.0,0.0,0.0,0.0,0.0
1702028661548608741,67,1702028661548160076,base_link,-0.14942162337401838,0.22920661697153133,-0.8641532028845293,-0.42234671438185484,0.0,0.0,0.0,0.0,0.0,0.0,0.0,0.0,0.0,-0.00907525047659874,0.008599987253546715,0.004202438518404961,0.0,0.0,0.0,0.0,0.0,0.0,0.0,0.0,0.0,4.321479066204306,-2.49999780149885,8.432960907822286,0.0,0.0,0.0,0.0,0.0,0.0,0.0,0.0,0.0
1702028661551734590,68,1702028661551314353,base_link,-0.1493814530521521,0.2292126023657589,-0.8641596924183564,-0.42234439785577343,0.0,0.0,0.0,0.0,0.0,0.0,0.0,0.0,0.0,-0.00907525047659874,0.008599987253546715,0.004202438518404961,0.0,0.0,0.0,0.0,0.0,0.0,0.0,0.0,0.0,4.321479066204306,-2.49999780149885,8.432960907822286,0.0,0.0,0.0,0.0,0.0,0.0,0.0,0.0,0.0
1702028661554955256,69,1702028661554591894,base_link,-0.1493814530521521,0.2292126023657589,-0.8641596924183564,-0.42234439785577343,0.0,0.0,0.0,0.0,0.0,0.0,0.0,0.0,0.0,-0.013335494324564934,7.781200110912323e-05,0.006332936696708202,0.0,0.0,0.0,0.0,0.0,0.0,0.0,0.0,0.0,4.356700755144557,-2.445439860491488,8.430835214784015,0.0,0.0,0.0,0.0,0.0,0.0,0.0,0.0,0.0
1702028661558126230,70,1702028661557821989,base_link,-0.14935822448390582,0.22922851314587434,-0.864161980434182,-0.4223392961968129,0.0,0.0,0.0,0.0,0.0,0.0,0.0,0.0,0.0,-0.013335494324564934,7.781200110912323e-05,0.006332936696708202,0.0,0.0,0.0,0.0,0.0,0.0,0.0,0.0,0.0,4.356700755144557,-2.445439860491488,8.430835214784015,0.0,0.0,0.0,0.0,0.0,0.0,0.0,0.0,0.0
1702028661561550755,71,1702028661561273813,base_link,-0.14935822448390582,0.22922851314587434,-0.864161980434182,-0.4223392961968129,0.0,0.0,0.0,0.0,0.0,0.0,0.0,0.0,0.0,-0.008008304052054882,0.0011430103331804276,0.010593937709927559,0.0,0.0,0.0,0.0,0.0,0.0,0.0,0.0,0.0,4.404633464683181,-2.500129026453545,8.389788965932187,0.0,0.0,0.0,0.0,0.0,0.0,0.0,0.0,0.0
1702028661564780194,72,1702028661564471483,base_link,-0.14933483183091684,0.2292405516360786,-0.864175258263231,-0.4223138649077201,0.0,0.0,0.0,0.0,0.0,0.0,0.0,0.0,0.0,-0.008008304052054882,0.0011430103331804276,0.010593937709927559,0.0,0.0,0.0,0.0,0.0,0.0,0.0,0.0,0.0,4.404633464683181,-2.500129026453545,8.389788965932187,0.0,0.0,0.0,0.0,0.0,0.0,0.0,0.0,0.0
1702028661568327974,73,1702028661567966938,base_link,-0.14933483183091684,0.2292405516360786,-0.864175258263231,-0.4223138649077201,0.0,0.0,0.0,0.0,0.0,0.0,0.0,0.0,0.0,-0.010137930512428284,0.003273371607065201,0.01059390977025032,0.0,0.0,0.0,0.0,0.0,0.0,0.0,0.0,0.0,4.312512740763024,-2.4769738306429385,8.444337422383514,0.0,0.0,0.0,0.0,0.0,0.0,0.0,0.0,0.0
1702028661571583892,74,1702028661571207523,base_link,-0.1493025817507864,0.22925312748548227,-0.8641825727350058,-0.422303473347996,0.0,0.0,0.0,0.0,0.0,0.0,0.0,0.0,0.0,-0.010137930512428284,0.003273371607065201,0.01059390977025032,0.0,0.0,0.0,0.0,0.0,0.0,0.0,0.0,0.0,4.312512740763024,-2.4769738306429385,8.444337422383514,0.0,0.0,0.0,0.0,0.0,0.0,0.0,0.0,0.0
1702028661575016864,75,1702028661574640989,base_link,-0.1493025817507864,0.22925312748548227,-0.8641825727350058,-0.422303473347996,0.0,0.0,0.0,0.0,0.0,0.0,0.0,0.0,0.0,-0.013332980684936047,0.01179538480937481,-0.003254573792219162,0.0,0.0,0.0,0.0,0.0,0.0,0.0,0.0,0.0,4.2534547832315805,-2.507596429555363,8.4652278500632,0.0,0.0,0.0,0.0,0.0,0.0,0.0,0.0,0.0
1702028661578124430,76,1702028661577794551,base_link,-0.14925919360146714,0.2292620355513661,-0.8641734067038085,-0.42233273058835735,0.0,0.0,0.0,0.0,0.0,0.0,0.0,0.0,0.0,-0.013332980684936047,0.01179538480937481,-0.003254573792219162,0.0,0.0,0.0,0.0,0.0,0.0,0.0,0.0,0.0,4.2534547832315805,-2.507596429555363,8.4652278500632,0.0,0.0,0.0,0.0,0.0,0.0,0.0,0.0,0.0
1702028661581569629,77,1702028661581235170,base_link,-0.14925919360146714,0.2292620355513661,-0.8641734067038085,-0.42233273058835735,0.0,0.0,0.0,0.0,0.0,0.0,0.0,0.0,0.0,-0.018658746033906937,0.010730193927884102,-0.01390727050602436,0.0,0.0,0.0,0.0,0.0,0.0,0.0,0.0,0.0,4.277613615706074,-2.568946298152891,8.434603527844835,0.0,0.0,0.0,0.0,0.0,0.0,0.0,0.0,0.0
1702028661584667028,78,1702028661584457635,base_link,-0.14922292920100072,0.22927942888145475,-0.8641507266546181,-0.422382507349396,0.0,0.0,0.0,0.0,0.0,0.0,0.0,0.0,0.0,-0.018658746033906937,0.010730193927884102,-0.01390727050602436,0.0,0.0,0.0,0.0,0.0,0.0,0.0,0.0,0.0,4.277613615706074,-2.568946298152891,8.434603527844835,0.0,0.0,0.0,0.0,0.0,0.0,0.0,0.0,0.0
1702028661588185097,79,1702028661587897062,base_link,-0.14922292920100072,0.22927942888145475,-0.8641507266546181,-0.422382507349396,0.0,0.0,0.0,0.0,0.0,0.0,0.0,0.0,0.0,-0.014397156424820423,-0.0031179264187812805,-0.011776825413107872,0.0,0.0,0.0,0.0,0.0,0.0,0.0,0.0,0.0,4.319931323182634,-2.5303505149943315,8.424697005486514,0.0,0.0,0.0,0.0,0.0,0.0,0.0,0.0,0.0
1702028661591378647,80,1702028661591136932,base_link,-0.14922356903737372,0.22930545834409344,-0.8641187804724697,-0.42243350536164265,0.0,0.0,0.0,0.0,0.0,0.0,0.0,0.0,0.0,-0.014397156424820423,-0.0031179264187812805,-0.011776825413107872,0.0,0.0,0.0,0.0,0.0,0.0,0.0,0.0,0.0,4.319931323182634,-2.5303505149943315,8.424697005486514,0.0,0.0,0.0,0.0,0.0,0.0,0.0,0.0,0.0
1702028661594804371,81,1702028661594575881,base_link,-0.14922356903737372,0.22930545834409344,-0.8641187804724697,-0.42243350536164265,0.0,0.0,0.0,0.0,0.0,0.0,0.0,0.0,0.0,-0.014396755956113338,-0.006313160061836243,-0.017103245481848717,0.0,0.0,0.0,0.0,0.0,0.0,0.0,0.0,0.0,4.353341490381307,-2.418317061784387,8.440388643706356,0.0,0.0,0.0,0.0,0.0,0.0,0.0,0.0,0.0
1702028661598179072,82,1702028661597892284,base_link,-0.14923400047013247,0.22933696742810095,-0.8640778880726329,-0.42249635716595374,0.0,0.0,0.0,0.0,0.0,0.0,0.0,0.0,0.0,-0.014396755956113338,-0.006313160061836243,-0.017103245481848717,0.0,0.0,0.0,0.0,0.0,0.0,0.0,0.0,0.0,4.353341490381307,-2.418317061784387,8.440388643706356,0.0,0.0,0.0,0.0,0.0,0.0,0.0,0.0,0.0
1702028661601471132,83,1702028661601227998,base_link,-0.14923400047013247,0.22933696742810095,-0.8640778880726329,-0.42249635716595374,0.0,0.0,0.0,0.0,0.0,0.0,0.0,0.0,0.0,-0.02398386038839817,-0.00524729210883379,-0.022429633885622025,0.0,0.0,0.0,0.0,0.0,0.0,0.0,0.0,0.0,4.358053146300743,-2.376280698899226,8.449891290073335,0.0,0.0,0.0,0.0,0.0,0.0,0.0,0.0,0.0
1702028661604725858,84,1702028661604485273,base_link,-0.14923857856467662,0.22938297649574135,-0.8640309784164129,-0.4225656932344665,0.0,0.0,0.0,0.0,0.0,0.0,0.0,0.0,0.0,-0.02398386038839817,-0.00524729210883379,-0.022429633885622025,0.0,0.0,0.0,0.0,0.0,0.0,0.0,0.0,0.0,4.358053146300743,-2.376280698899226,8.449891290073335,0.0,0.0,0.0,0.0,0.0,0.0,0.0,0.0,0.0
1702028661608121949,85,1702028661607894420,base_link,-0.14923857856467662,0.22938297649574135,-0.8640309784164129,-0.4225656932344665,0.0,0.0,0.0,0.0,0.0,0.0,0.0,0.0,0.0,-0.02185300551354885,-0.00737724918872118,-0.018168631941080093,0.0,0.0,0.0,0.0,0.0,0.0,0.0,0.0,0.0,4.395117315834806,-2.442269972589909,8.411792981346768,0.0,0.0,0.0,0.0,0.0,0.0,0.0,0.0,0.0
1702028661611369071,86,1702028661611134767,base_link,-0.14924373690189296,0.22942213430342073,-0.8639940620181564,-0.4226180924719002,0.0,0.0,0.0,0.0,0.0,0.0,0.0,0.0,0.0,-0.02185300551354885,-0.00737724918872118,-0.018168631941080093,0.0,0.0,0.0,0.0,0.0,0.0,0.0,0.0,0.0,4.395117315834806,-2.442269972589909,8.411792981346768,0.0,0.0,0.0,0.0,0.0,0.0,0.0,0.0,0.0
1702028661614816861,87,1702028661614578723,base_link,-0.14924373690189296,0.22942213430342073,-0.8639940620181564,-0.4226180924719002,0.0,0.0,0.0,0.0,0.0,0.0,0.0,0.0,0.0,-0.01865673065185547,-0.0031158216297626495,-0.009646572172641754,0.0,0.0,0.0,0.0,0.0,0.0,0.0,0.0,0.0,4.389430905005355,-2.449571568774985,8.41263903062726,0.0,0.0,0.0,0.0,0.0,0.0,0.0,0.0,0.0
1702028661618030692,88,1702028661617802143,base_link,-0.1492354609278983,0.22945792761316675,-0.8639711770110937,-0.4226483667910875,0.0,0.0,0.0,0.0,0.0,0.0,0.0,0.0,0.0,-0.01865673065185547,-0.0031158216297626495,-0.009646572172641754,0.0,0.0,0.0,0.0,0.0,0.0,0.0,0.0,0.0,4.389430905005355,-2.449571568774985,8.41263903062726,0.0,0.0,0.0,0.0,0.0,0.0,0.0,0.0,0.0
1702028661621749389,89,1702028661621239185,base_link,-0.1492354609278983,0.22945792761316675,-0.8639711770110937,-0.4226483667910875,0.0,0.0,0.0,0.0,0.0,0.0,0.0,0.0,0.0,-0.02504776604473591,0.00114540196955204,-0.004320254549384117,0.0,0.0,0.0,0.0,0.0,0.0,0.0,0.0,0.0,4.434529812590762,-2.3906470556944224,8.405935521781222,0.0,0.0,0.0,0.0,0.0,0.0,0.0,0.0,0.0
1702028661624921839,90,1702028661624601602,base_link,-0.1492046650342663,0.22950627044323277,-0.863950965105557,-0.42267430682787754,0.0,0.0,0.0,0.0,0.0,0.0,0.0,0.0,0.0,-0.02504776604473591,0.00114540196955204,-0.004320254549384117,0.0,0.0,0.0,0.0,0.0,0.0,0.0,0.0,0.0,4.434529812590762,-2.3906470556944224,8.405935521781222,0.0,0.0,0.0,0.0,0.0,0.0,0.0,0.0,0.0
1702028661628301610,91,1702028661627957582,base_link,-0.1492046650342663,0.22950627044323277,-0.863950965105557,-0.42267430682787754,0.0,0.0,0.0,0.0,0.0,0.0,0.0,0.0,0.0,-0.02185133658349514,0.008602168411016464,0.004201885312795639,0.0,0.0,0.0,0.0,0.0,0.0,0.0,0.0,0.0,4.403513777047544,-2.379576756204437,8.42535939154432,0.0,0.0,0.0,0.0,0.0,0.0,0.0,0.0,0.0
1702028661631493223,92,1702028661631160497,base_link,-0.1491604749517283,0.22955302961024027,-0.8639432392891861,-0.4226803030606502,0.0,0.0,0.0,0.0,0.0,0.0,0.0,0.0,0.0,-0.02185133658349514,0.008602168411016464,0.004201885312795639,0.0,0.0,0.0,0.0,0.0,0.0,0.0,0.0,0.0,4.403513777047544,-2.379576756204437,8.42535939154432,0.0,0.0,0.0,0.0,0.0,0.0,0.0,0.0,0.0
1702028661634876090,93,1702028661634606599,base_link,-0.1491604749517283,0.22955302961024027,-0.8639432392891861,-0.4226803030606502,0.0,0.0,0.0,0.0,0.0,0.0,0.0,0.0,0.0,-0.018654802814126015,0.005406230688095093,0.013789311982691288,0.0,0.0,0.0,0.0,0.0,0.0,0.0,0.0,0.0,4.484486955180756,-2.4311546551106504,8.367727516581038,0.0,0.0,0.0,0.0,0.0,0.0,0.0,0.0,0.0
1702028661638084300,94,1702028661637829303,base_link,-0.14910203234617575,0.22959243928896908,-0.8639544369077219,-0.42265662980608976,0.0,0.0,0.0,0.0,0.0,0.0,0.0,0.0,0.0,-0.018654802814126015,0.005406230688095093,0.013789311982691288,0.0,0.0,0.0,0.0,0.0,0.0,0.0,0.0,0.0,4.484486955180756,-2.4311546551106504,8.367727516581038,0.0,0.0,0.0,0.0,0.0,0.0,0.0,0.0,0.0
1702028661641533748,95,1702028661641262054,base_link,-0.14910203234617575,0.22959243928896908,-0.8639544369077219,-0.42265662980608976,0.0,0.0,0.0,0.0,0.0,0.0,0.0,0.0,0.0,-0.027176085859537125,0.014993105083703995,0.0148546751588583,0.0,0.0,0.0,0.0,0.0,0.0,0.0,0.0,0.0,4.366046020891297,-2.452213538238885,8.42403056181168,0.0,0.0,0.0,0.0,0.0,0.0,0.0,0.0,0.0
1702028661644827530,96,1702028661644480228,base_link,-0.14901197089078727,0.22962484084362078,-0.8639656822134729,-0.4226478024977693,0.0,0.0,0.0,0.0,0.0,0.0,0.0,0.0,0.0,-0.027176085859537125,0.014993105083703995,0.0148546751588583,0.0,0.0,0.0,0.0,0.0,0.0,0.0,0.0,0.0,4.366046020891297,-2.452213538238885,8.42403056181168,0.0,0.0,0.0,0.0,0.0,0.0,0.0,0.0,0.0
1702028661648262903,97,1702028661647963047,base_link,-0.14901197089078727,0.22962484084362078,-0.8639656822134729,-0.4226478024977693,0.0,0.0,0.0,0.0,0.0,0.0,0.0,0.0,0.0,-0.025044765323400497,0.021384119987487793,0.00846315361559391,0.0,0.0,0.0,0.0,0.0,0.0,0.0,0.0,0.0,4.327121406480986,-2.5034084379436075,8.42905490113849,0.0,0.0,0.0,0.0,0.0,0.0,0.0,0.0,0.0
1702028661651420526,98,1702028661651165723,base_link,-0.1489226950235571,0.22964312548691657,-0.863970630197484,-0.4226592196790259,0.0,0.0,0.0,0.0,0.0,0.0,0.0,0.0,0.0,-0.025044765323400497,0.021384119987487793,0.00846315361559391,0.0,0.0,0.0,0.0,0.0,0.0,0.0,0.0,0.0,4.327121406480986,-2.5034084379436075,8.42905490113849,0.0,0.0,0.0,0.0,0.0,0.0,0.0,0.0,0.0
1702028661654876083,99,1702028661654567956,base_link,-0.1489226950235571,0.22964312548691657,-0.863970630197484,-0.4226592196790259,0.0,0.0,0.0,0.0,0.0,0.0,0.0,0.0,0.0,-0.01439135055989027,0.009665913879871368,0.004202086478471756,0.0,0.0,0.0,0.0,0.0,0.0,0.0,0.0,0.0,4.331446562908158,-2.543948567928811,8.414683378262314,0.0,0.0,0.0,0.0,0.0,0.0,0.0,0.0,0.0
1702028661658174742,100,1702028661657827138,base_link,-0.14886968794413527,0.22965578645785834,-0.8639678137196676,-0.4226767708477674,0.0,0.0,0.0,0.0,0.0,0.0,0.0,0.0,0.0,-0.01439135055989027,0.009665913879871368,0.004202086478471756,0.0,0.0,0.0,0.0,0.0,0.0,0.0,0.0,0.0,4.331446562908158,-2.543948567928811,8.414683378262314,0.0,0.0,0.0,0.0,0.0,0.0,0.0,0.0,0.0
1702028661661510285,101,1702028661661248922,base_link,-0.14886968794413527,0.22965578645785834,-0.8639678137196676,-0.4226767708477674,0.0,0.0,0.0,0.0,0.0,0.0,0.0,0.0,0.0,-0.010129624977707863,0.0032743271440267563,-0.0032548215240240097,0.0,0.0,0.0,0.0,0.0,0.0,0.0,0.0,0.0,4.320960712985543,-2.4945767829167775,8.434831663463596,0.0,0.0,0.0,0.0,0.0,0.0,0.0,0.0,0.0
1702028661664728390,102,1702028661664485216,base_link,-0.1488592598047771,0.22966479253191735,-0.8639577515083884,-0.42269611714589395,0.0,0.0,0.0,0.0,0.0,0.0,0.0,0.0,0.0,-0.010129624977707863,0.0032743271440267563,-0.0032548215240240097,0.0,0.0,0.0,0.0,0.0,0.0,0.0,0.0,0.0,4.320960712985543,-2.4945767829167775,8.434831663463596,0.0,0.0,0.0,0.0,0.0,0.0,0.0,0.0,0.0
1702028661668251836,103,1702028661667932510,base_link,-0.1488592598047771,0.22966479253191735,-0.8639577515083884,-0.42269611714589395,0.0,0.0,0.0,0.0,0.0,0.0,0.0,0.0,0.0,-0.01012892834842205,-0.007378038950264454,0.0010061487555503845,0.0,0.0,0.0,0.0,0.0,0.0,0.0,0.0,0.0,4.348295886141752,-2.422924186631218,8.441668156969936,0.0,0.0,0.0,0.0,0.0,0.0,0.0,0.0,0.0
1702028661671426474,104,1702028661671156406,base_link,-0.1488654800053628,0.22968525176612764,-0.8639528078330209,-0.4226929143259241,0.0,0.0,0.0,0.0,0.0,0.0,0.0,0.0,0.0,-0.01012892834842205,-0.007378038950264454,0.0010061487555503845,0.0,0.0,0.0,0.0,0.0,0.0,0.0,0.0,0.0,4.348295886141752,-2.422924186631218,8.441668156969936,0.0,0.0,0.0,0.0,0.0,0.0,0.0,0.0,0.0
1702028661674829395,105,1702028661674575090,base_link,-0.1488654800053628,0.22968525176612764,-0.8639528078330209,-0.4226929143259241,0.0,0.0,0.0,0.0,0.0,0.0,0.0,0.0,0.0,-0.009062820114195347,-0.0020516542717814445,0.011658734641969204,0.0,0.0,0.0,0.0,0.0,0.0,0.0,0.0,0.0,4.417121845839902,-2.3598205501724845,8.42379258825783,0.0,0.0,0.0,0.0,0.0,0.0,0.0,0.0,0.0
1702028661678095764,106,1702028661677833795,base_link,-0.1488523473158733,0.22970356663044478,-0.8639670236935545,-0.42265852901119666,0.0,0.0,0.0,0.0,0.0,0.0,0.0,0.0,0.0,-0.009062820114195347,-0.0020516542717814445,0.011658734641969204,0.0,0.0,0.0,0.0,0.0,0.0,0.0,0.0,0.0,4.417121845839902,-2.3598205501724845,8.42379258825783,0.0,0.0,0.0,0.0,0.0,0.0,0.0,0.0,0.0
1702028661681565133,107,1702028661681242227,base_link,-0.1488523473158733,0.22970356663044478,-0.8639670236935545,-0.42265852901119666,0.0,0.0,0.0,0.0,0.0,0.0,0.0,0.0,0.0,-0.009061826393008232,-0.004182329401373863,0.023376625031232834,0.0,0.0,0.0,0.0,0.0,0.0,0.0,0.0,0.0,4.394296907949179,-2.4367779001606613,8.413814126190148,0.0,0.0,0.0,0.0,0.0,0.0,0.0,0.0,0.0
1702028661684729195,108,1702028661684474706,base_link,-0.14883213377348692,0.22971694767483392,-0.8640001108943338,-0.4225907337862097,0.0,0.0,0.0,0.0,0.0,0.0,0.0,0.0,0.0,-0.009061826393008232,-0.004182329401373863,0.023376625031232834,0.0,0.0,0.0,0.0,0.0,0.0,0.0,0.0,0.0,4.394296907949179,-2.4367779001606613,8.413814126190148,0.0,0.0,0.0,0.0,0.0,0.0,0.0,0.0,0.0
1702028661688273771,109,1702028661687927961,base_link,-0.14883213377348692,0.22971694767483392,-0.8640001108943338,-0.4225907337862097,0.0,0.0,0.0,0.0,0.0,0.0,0.0,0.0,0.0,-0.002669072709977627,7.83819705247879e-05,0.02657238394021988,0.0,0.0,0.0,0.0,0.0,0.0,0.0,0.0,0.0,4.334106515919283,-2.463457310102377,8.437232887029325,0.0,0.0,0.0,0.0,0.0,0.0,0.0,0.0,0.0
1702028661691721005,110,1702028661691391468,base_link,-0.14880061627660476,0.22971711171443826,-0.8640392965786492,-0.4225216197417028,0.0,0.0,0.0,0.0,0.0,0.0,0.0,0.0,0.0,-0.002669072709977627,7.83819705247879e-05,0.02657238394021988,0.0,0.0,0.0,0.0,0.0,0.0,0.0,0.0,0.0,4.334106515919283,-2.463457310102377,8.437232887029325,0.0,0.0,0.0,0.0,0.0,0.0,0.0,0.0,0.0
1702028661695171183,111,1702028661694833040,base_link,-0.14880061627660476,0.22971711171443826,-0.8640392965786492,-0.4225216197417028,0.0,0.0,0.0,0.0,0.0,0.0,0.0,0.0,0.0,-0.0037331776693463326,0.0054042749106884,0.025507085025310516,0.0,0.0,0.0,0.0,0.0,0.0,0.0,0.0,0.0,4.2628406214562515,-2.521964190962588,8.456233585678964,0.0,0.0,0.0,0.0,0.0,0.0,0.0,0.0,0.0
1702028661698373269,112,1702028661698025226,base_link,-0.14875167236372336,0.2297198747571244,-0.8640729279061332,-0.4224685720503822,0.0,0.0,0.0,0.0,0.0,0.0,0.0,0.0,0.0,-0.0037331776693463326,0.0054042749106884,0.025507085025310516,0.0,0.0,0.0,0.0,0.0,0.0,0.0,0.0,0.0,4.2628406214562515,-2.521964190962588,8.456233585678964,0.0,0.0,0.0,0.0,0.0,0.0,0.0,0.0,0.0
1702028661701911231,113,1702028661701471090,base_link,-0.14875167236372336,0.2297198747571244,-0.8640729279061332,-0.4224685720503822,0.0,0.0,0.0,0.0,0.0,0.0,0.0,0.0,0.0,-0.006928004324436188,0.006469244137406349,0.009528079070150852,0.0,0.0,0.0,0.0,0.0,0.0,0.0,0.0,0.0,4.278163323465425,-2.5027663641915256,8.454198903741668,0.0,0.0,0.0,0.0,0.0,0.0,0.0,0.0,0.0
1702028661705052685,114,1702028661704632520,base_link,-0.14871020246477662,0.22972090084992886,-0.8640879196303095,-0.42245195057490953,0.0,0.0,0.0,0.0,0.0,0.0,0.0,0.0,0.0,-0.006928004324436188,0.006469244137406349,0.009528079070150852,0.0,0.0,0.0,0.0,0.0,0.0,0.0,0.0,0.0,4.278163323465425,-2.5027663641915256,8.454198903741668,0.0,0.0,0.0,0.0,0.0,0.0,0.0,0.0,0.0
1702028661708515572,115,1702028661708170890,base_link,-0.14871020246477662,0.22972090084992886,-0.8640879196303095,-0.42245195057490953,0.0,0.0,0.0,0.0,0.0,0.0,0.0,0.0,0.0,-0.011188250966370106,-0.002052917145192623,0.0020711757242679596,0.0,0.0,0.0,0.0,0.0,0.0,0.0,0.0,0.0,4.293696611978951,-2.558523760862578,8.429598185523561,0.0,0.0,0.0,0.0,0.0,0.0,0.0,0.0,0.0
1702028661711690018,116,1702028661711373329,base_link,-0.1486912945252215,0.2297415353647189,-0.864085023162877,-0.4224533093802031,0.0,0.0,0.0,0.0,0.0,0.0,0.0,0.0,0.0,-0.011188250966370106,-0.002052917145192623,0.0020711757242679596,0.0,0.0,0.0,0.0,0.0,0.0,0.0,0.0,0.0,4.293696611978951,-2.558523760862578,8.429598185523561,0.0,0.0,0.0,0.0,0.0,0.0,0.0,0.0,0.0
1702028661715108199,117,1702028661714785575,base_link,-0.1486912945252215,0.2297415353647189,-0.864085023162877,-0.4224533093802031,0.0,0.0,0.0,0.0,0.0,0.0,0.0,0.0,0.0,-0.009057039394974709,7.777661085128784e-05,-0.005385754629969597,0.0,0.0,0.0,0.0,0.0,0.0,0.0,0.0,0.0,4.257647387638968,-2.4561804369210494,8.47818473399922,0.0,0.0,0.0,0.0,0.0,0.0,0.0,0.0,0.0
1702028661718408544,118,1702028661718015909,base_link,-0.14867593079668945,0.2297545075211555,-0.8640742376663569,-0.42247372187717597,0.0,0.0,0.0,0.0,0.0,0.0,0.0,0.0,0.0,-0.009057039394974709,7.777661085128784e-05,-0.005385754629969597,0.0,0.0,0.0,0.0,0.0,0.0,0.0,0.0,0.0,4.257647387638968,-2.4561804369210494,8.47818473399922,0.0,0.0,0.0,0.0,0.0,0.0,0.0,0.0,0.0
1702028661721811892,119,1702028661721482515,base_link,-0.14867593079668945,0.2297545075211555,-0.8640742376663569,-0.42247372187717597,0.0,0.0,0.0,0.0,0.0,0.0,0.0,0.0,0.0,-0.01225215569138527,7.790513336658478e-05,-0.0011247564107179642,0.0,0.0,0.0,0.0,0.0,0.0,0.0,0.0,0.0,4.33591402840246,-2.453566966520413,8.439185901442308,0.0,0.0,0.0,0.0,0.0,0.0,0.0,0.0,0.0
1702028661724982978,120,1702028661724639892,base_link,-0.1486575533155993,0.22977697534568386,-0.864067951855993,-0.42248082562241573,0.0,0.0,0.0,0.0,0.0,0.0,0.0,0.0,0.0,-0.01225215569138527,7.790513336658478e-05,-0.0011247564107179642,0.0,0.0,0.0,0.0,0.0,0.0,0.0,0.0,0.0,4.33591402840246,-2.453566966520413,8.439185901442308,0.0,0.0,0.0,0.0,0.0,0.0,0.0,0.0,0.0
1702028661728566910,121,1702028661728129386,base_link,-0.1486575533155993,0.22977697534568386,-0.864067951855993,-0.42248082562241573,0.0,0.0,0.0,0.0,0.0,0.0,0.0,0.0,0.0,-0.011186121962964535,7.78883695602417e-05,0.008462594822049141,0.0,0.0,0.0,0.0,0.0,0.0,0.0,0.0,0.0,4.390845670174219,-2.4756154378515967,8.404272871854124,0.0,0.0,0.0,0.0,0.0,0.0,0.0,0.0,0.0
1702028661731900825,122,1702028661731376886,base_link,-0.14864456396658332,0.22980268863394576,-0.8640733184366911,-0.4224604339646479,0.0,0.0,0.0,0.0,0.0,0.0,0.0,0.0,0.0,-0.011186121962964535,7.78883695602417e-05,0.008462594822049141,0.0,0.0,0.0,0.0,0.0,0.0,0.0,0.0,0.0,4.390845670174219,-2.4756154378515967,8.404272871854124,0.0,0.0,0.0,0.0,0.0,0.0,0.0,0.0,0.0
1702028661735112394,123,1702028661734796524,base_link,-0.14864456396658332,0.22980268863394576,-0.8640733184366911,-0.4224604339646479,0.0,0.0,0.0,0.0,0.0,0.0,0.0,0.0,0.0,-0.007989468984305859,-0.0020526601001620293,0.014854153618216515,0.0,0.0,0.0,0.0,0.0,0.0,0.0,0.0,0.0,4.468655214274487,-2.5155171206387457,8.35124506835423,0.0,0.0,0.0,0.0,0.0,0.0,0.0,0.0,0.0
1702028661738289604,124,1702028661738054990,base_link,-0.14862316798927813,0.22981913661605402,-0.8640863178390251,-0.4224324250164487,0.0,0.0,0.0,0.0,0.0,0.0,0.0,0.0,0.0,-0.007989468984305859,-0.0020526601001620293,0.014854153618216515,0.0,0.0,0.0,0.0,0.0,0.0,0.0,0.0,0.0,4.468655214274487,-2.5155171206387457,8.35124506835423,0.0,0.0,0.0,0.0,0.0,0.0,0.0,0.0,0.0
1702028661741920054,125,1702028661741476058,base_link,-0.14862316798927813,0.22981913661605402,-0.8640863178390251,-0.4224324250164487,0.0,0.0,0.0,0.0,0.0,0.0,0.0,0.0,0.0,-0.014380179345607758,0.008599679917097092,0.01272362470626831,0.0,0.0,0.0,0.0,0.0,0.0,0.0,0.0,0.0,4.403162596962178,-2.473956454105009,8.398315224371222,0.0,0.0,0.0,0.0,0.0,0.0,0.0,0.0,0.0
1702028661745134300,126,1702028661744663000,base_link,-0.14856632088078078,0.2298316368539136,-0.864097736214425,-0.42242226417425716,0.0,0.0,0.0,0.0,0.0,0.0,0.0,0.0,0.0,-0.014380179345607758,0.008599679917097092,0.01272362470626831,0.0,0.0,0.0,0.0,0.0,0.0,0.0,0.0,0.0,4.403162596962178,-2.473956454105009,8.398315224371222,0.0,0.0,0.0,0.0,0.0,0.0,0.0,0.0,0.0
1702028661748568771,127,1702028661748142004,base_link,-0.14856632088078078,0.2298316368539136,-0.864097736214425,-0.42242226417425716,0.0,0.0,0.0,0.0,0.0,0.0,0.0,0.0,0.0,-0.01544458232820034,0.019251840189099312,0.010593105107545853,0.0,0.0,0.0,0.0,0.0,0.0,0.0,0.0,0.0,4.382250337393628,-2.510358819327672,8.398451082112537,0.0,0.0,0.0,0.0,0.0,0.0,0.0,0.0,0.0
1702028661751686837,128,1702028661751382112,base_link,-0.14849455411238677,0.22983695598287493,-0.8641094592684426,-0.42242062386475576,0.0,0.0,0.0,0.0,0.0,0.0,0.0,0.0,0.0,-0.01544458232820034,0.019251840189099312,0.010593105107545853,0.0,0.0,0.0,0.0,0.0,0.0,0.0,0.0,0.0,4.382250337393628,-2.510358819327672,8.398451082112537,0.0,0.0,0.0,0.0,0.0,0.0,0.0,0.0,0.0
1702028661755043863,129,1702028661754817962,base_link,-0.14849455411238677,0.22983695598287493,-0.8641094592684426,-0.42242062386475576,0.0,0.0,0.0,0.0,0.0,0.0,0.0,0.0,0.0,-0.016509030014276505,0.020316652953624725,0.006332051940262318,0.0,0.0,0.0,0.0,0.0,0.0,0.0,0.0,0.0,4.301883311942335,-2.498318385772982,8.443471159051871,0.0,0.0,0.0,0.0,0.0,0.0,0.0,0.0,0.0
1702028661758450495,130,1702028661758020639,base_link,-0.14841193669113723,0.22983936801617239,-0.8641146571535274,-0.42243771286422105,0.0,0.0,0.0,0.0,0.0,0.0,0.0,0.0,0.0,-0.016509030014276505,0.020316652953624725,0.006332051940262318,0.0,0.0,0.0,0.0,0.0,0.0,0.0,0.0,0.0,4.301883311942335,-2.498318385772982,8.443471159051871,0.0,0.0,0.0,0.0,0.0,0.0,0.0,0.0,0.0
1702028661761772839,131,1702028661761463880,base_link,-0.14841193669113723,0.22983936801617239,-0.8641146571535274,-0.42243771286422105,0.0,0.0,0.0,0.0,0.0,0.0,0.0,0.0,0.0,-0.017573630437254906,0.018185822293162346,-0.007516408339142799,0.0,0.0,0.0,0.0,0.0,0.0,0.0,0.0,0.0,4.289618704812372,-2.537638824404947,8.437983204782794,0.0,0.0,0.0,0.0,0.0,0.0,0.0,0.0,0.0
1702028661765086695,132,1702028661764655590,base_link,-0.148345741893593,0.22983379322443917,-0.8641002723464902,-0.4224934173272133,0.0,0.0,0.0,0.0,0.0,0.0,0.0,0.0,0.0,-0.017573630437254906,0.018185822293162346,-0.007516408339142799,0.0,0.0,0.0,0.0,0.0,0.0,0.0,0.0,0.0,4.289618704812372,-2.537638824404947,8.437983204782794,0.0,0.0,0.0,0.0,0.0,0.0,0.0,0.0,0.0
1702028661768527628,133,1702028661768165349,base_link,-0.148345741893593,0.22983379322443917,-0.8641002723464902,-0.4224934173272133,0.0,0.0,0.0,0.0,0.0,0.0,0.0,0.0,0.0,-0.011181504465639591,0.01712051033973694,-0.019234422594308853,0.0,0.0,0.0,0.0,0.0,0.0,0.0,0.0,0.0,4.279933579514695,-2.503072586154278,8.453212181377294,0.0,0.0,0.0,0.0,0.0,0.0,0.0,0.0,0.0
1702028661771657632,134,1702028661771375656,base_link,-0.14830806752243517,0.2298107781368393,-0.8640750474673058,-0.4225707463896129,0.0,0.0,0.0,0.0,0.0,0.0,0.0,0.0,0.0,-0.011181504465639591,0.01712051033973694,-0.019234422594308853,0.0,0.0,0.0,0.0,0.0,0.0,0.0,0.0,0.0,4.279933579514695,-2.503072586154278,8.453212181377294,0.0,0.0,0.0,0.0,0.0,0.0,0.0,0.0,0.0
1702028661775381035,135,1702028661774814367,base_link,-0.14830806752243517,0.2298107781368393,-0.8640750474673058,-0.4225707463896129,0.0,0.0,0.0,0.0,0.0,0.0,0.0,0.0,0.0,-0.005854695104062557,-0.0009886566549539566,-0.022430384531617165,0.0,0.0,0.0,0.0,0.0,0.0,0.0,0.0,0.0,4.350877124971016,-2.4179339192634153,8.441768997400926,0.0,0.0,0.0,0.0,0.0,0.0,0.0,0.0,0.0
1702028661778437283,136,1702028661778017759,base_link,-0.14832577308135256,0.22979332357472676,-0.864048513086713,-0.42262827699166106,0.0,0.0,0.0,0.0,0.0,0.0,0.0,0.0,0.0,-0.005854695104062557,-0.0009886566549539566,-0.022430384531617165,0.0,0.0,0.0,0.0,0.0,0.0,0.0,0.0,0.0,4.350877124971016,-2.4179339192634153,8.441768997400926,0.0,0.0,0.0,0.0,0.0,0.0,0.0,0.0,0.0
1702028661781936291,137,1702028661781472444,base_link,-0.14832577308135256,0.22979332357472676,-0.864048513086713,-0.42262827699166106,0.0,0.0,0.0,0.0,0.0,0.0,0.0,0.0,0.0,0.006929144263267517,-0.006314549595117569,-0.013908488675951958,0.0,0.0,0.0,0.0,0.0,0.0,0.0,0.0,0.0,4.460390205166002,-2.3686062964901216,8.398489354037817,0.0,0.0,0.0,0.0,0.0,0.0,0.0,0.0,0.0
1702028661785105699,138,1702028661784660577,base_link,-0.14837259260318855,0.2297641857403317,-0.864034483600337,-0.4226563661708994,0.0,0.0,0.0,0.0,0.0,0.0,0.0,0.0,0.0,0.006929144263267517,-0.006314549595117569,-0.013908488675951958,0.0,0.0,0.0,0.0,0.0,0.0,0.0,0.0,0.0,4.460390205166002,-2.3686062964901216,8.398489354037817,0.0,0.0,0.0,0.0,0.0,0.0,0.0,0.0,0.0
1702028661788624200,139,1702028661788174152,base_link,-0.14837259260318855,0.2297641857403317,-0.864034483600337,-0.4226563661708994,0.0,0.0,0.0,0.0,0.0,0.0,0.0,0.0,0.0,0.00266889575868845,-0.008444694802165031,0.0010050181299448013,0.0,0.0,0.0,0.0,0.0,0.0,0.0,0.0,0.0,4.425910434195679,-2.3560659422874495,8.42022981302001,0.0,0.0,0.0,0.0,0.0,0.0,0.0,0.0,0.0
1702028661791771225,140,1702028661791374921,base_link,-0.14839160462811485,0.22974871232309485,-0.8640424960351608,-0.4226417228659547,0.0,0.0,0.0,0.0,0.0,0.0,0.0,0.0,0.0,0.00266889575868845,-0.008444694802165031,0.0010050181299448013,0.0,0.0,0.0,0.0,0.0,0.0,0.0,0.0,0.0,4.425910434195679,-2.3560659422874495,8.42022981302001,0.0,0.0,0.0,0.0,0.0,0.0,0.0,0.0,0.0
1702028661795355643,141,1702028661794808149,base_link,-0.14839160462811485,0.22974871232309485,-0.8640424960351608,-0.4226417228659547,0.0,0.0,0.0,0.0,0.0,0.0,0.0,0.0,0.0,-0.0005258629098534584,0.009664589539170265,0.014853350818157196,0.0,0.0,0.0,0.0,0.0,0.0,0.0,0.0,0.0,4.471149851746579,-2.286858549549764,8.415408307240815,0.0,0.0,0.0,0.0,0.0,0.0,0.0,0.0,0.0
1702028661798593287,142,1702028661798052310,base_link,-0.14835735032766129,0.22973080706698754,-0.8640711804188191,-0.422604836765665,0.0,0.0,0.0,0.0,0.0,0.0,0.0,0.0,0.0,-0.0005258629098534584,0.009664589539170265,0.014853350818157196,0.0,0.0,0.0,0.0,0.0,0.0,0.0,0.0,0.0,4.471149851746579,-2.286858549549764,8.415408307240815,0.0,0.0,0.0,0.0,0.0,0.0,0.0,0.0,0.0
1702028661801953407,143,1702028661801485776,base_link,-0.14835735032766129,0.22973080706698754,-0.8640711804188191,-0.422604836765665,0.0,0.0,0.0,0.0,0.0,0.0,0.0,0.0,0.0,-0.00798165425658226,0.011794660240411758,0.016983840614557266,0.0,0.0,0.0,0.0,0.0,0.0,0.0,0.0,0.0,4.410004336258614,-2.421920313990331,8.409884883092111,0.0,0.0,0.0,0.0,0.0,0.0,0.0,0.0,0.0
1702028661805120696,144,1702028661804658174,base_link,-0.14830604964323504,0.22972709863418223,-0.864102805862625,-0.42256019298163633,0.0,0.0,0.0,0.0,0.0,0.0,0.0,0.0,0.0,-0.00798165425658226,0.011794660240411758,0.016983840614557266,0.0,0.0,0.0,0.0,0.0,0.0,0.0,0.0,0.0,4.410004336258614,-2.421920313990331,8.409884883092111,0.0,0.0,0.0,0.0,0.0,0.0,0.0,0.0,0.0
1702028661808638318,145,1702028661808171033,base_link,-0.14830604964323504,0.22972709863418223,-0.864102805862625,-0.42256019298163633,0.0,0.0,0.0,0.0,0.0,0.0,0.0,0.0,0.0,-0.0015889089554548264,0.009663568809628487,0.024440664798021317,0.0,0.0,0.0,0.0,0.0,0.0,0.0,0.0,0.0,4.394606808167642,-2.4682548600405085,8.404471961253307,0.0,0.0,0.0,0.0,0.0,0.0,0.0,0.0,0.0
1702028661811831640,146,1702028661811351060,base_link,-0.14826844261996436,0.22970901092221274,-0.864145652774196,-0.42249559762871824,0.0,0.0,0.0,0.0,0.0,0.0,0.0,0.0,0.0,-0.0015889089554548264,0.009663568809628487,0.024440664798021317,0.0,0.0,0.0,0.0,0.0,0.0,0.0,0.0,0.0,4.394606808167642,-2.4682548600405085,8.404471961253307,0.0,0.0,0.0,0.0,0.0,0.0,0.0,0.0,0.0
1702028661815389990,147,1702028661814821004,base_link,-0.14826844261996436,0.22970901092221274,-0.864145652774196,-0.42249559762871824,0.0,0.0,0.0,0.0,0.0,0.0,0.0,0.0,0.0,0.007999705150723457,-0.000989450141787529,0.025505835190415382,0.0,0.0,0.0,0.0,0.0,0.0,0.0,0.0,0.0,4.31939962362228,-2.4853077724411365,8.438366676537315,0.0,0.0,0.0,0.0,0.0,0.0,0.0,0.0,0.0
1702028661818430948,148,1702028661817980051,base_link,-0.14826709892611048,0.2296809851361653,-0.8641902939463671,-0.42241999040268824,0.0,0.0,0.0,0.0,0.0,0.0,0.0,0.0,0.0,0.007999705150723457,-0.000989450141787529,0.025505835190415382,0.0,0.0,0.0,0.0,0.0,0.0,0.0,0.0,0.0,4.31939962362228,-2.4853077724411365,8.438366676537315,0.0,0.0,0.0,0.0,0.0,0.0,0.0,0.0,0.0
1702028661821801747,149,1702028661821383476,base_link,-0.14826709892611048,0.2296809851361653,-0.8641902939463671,-0.42241999040268824,0.0,0.0,0.0,0.0,0.0,0.0,0.0,0.0,0.0,0.013327229768037796,-0.007381097413599491,0.015918290242552757,0.0,0.0,0.0,0.0,0.0,0.0,0.0,0.0,0.0,4.197117975501475,-2.581702465383385,8.471069181629657,0.0,0.0,0.0,0.0,0.0,0.0,0.0,0.0,0.0
1702028661824861735,150,1702028661824513435,base_link,-0.14829281196098515,0.22965105796725982,-0.8642214674859638,-0.42236345560622246,0.0,0.0,0.0,0.0,0.0,0.0,0.0,0.0,0.0,0.013327229768037796,-0.007381097413599491,0.015918290242552757,0.0,0.0,0.0,0.0,0.0,0.0,0.0,0.0,0.0,4.197117975501475,-2.581702465383385,8.471069181629657,0.0,0.0,0.0,0.0,0.0,0.0,0.0,0.0,0.0
1702028661828302670,151,1702028661827957391,base_link,-0.14829281196098515,0.22965105796725982,-0.8642214674859638,-0.42236345560622246,0.0,0.0,0.0,0.0,0.0,0.0,0.0,0.0,0.0,0.013328290544450283,-0.012707162648439407,0.0073959678411483765,0.0,0.0,0.0,0.0,0.0,0.0,0.0,0.0,0.0,4.2562096618097955,-2.523273468002124,8.459182603561263,0.0,0.0,0.0,0.0,0.0,0.0,0.0,0.0,0.0
1702028661831517601,152,1702028661831174135,base_link,-0.1483431787788142,0.22961358575314103,-0.8642337387911005,-0.4223410319665112,0.0,0.0,0.0,0.0,0.0,0.0,0.0,0.0,0.0,0.013328290544450283,-0.012707162648439407,0.0073959678411483765,0.0,0.0,0.0,0.0,0.0,0.0,0.0,0.0,0.0,4.2562096618097955,-2.523273468002124,8.459182603561263,0.0,0.0,0.0,0.0,0.0,0.0,0.0,0.0,0.0
1702028661834871640,153,1702028661834592103,base_link,-0.1483431787788142,0.22961358575314103,-0.8642337387911005,-0.4223410319665112,0.0,0.0,0.0,0.0,0.0,0.0,0.0,0.0,0.0,0.015459699556231499,-0.013771876692771912,-0.00645274855196476,0.0,0.0,0.0,0.0,0.0,0.0,0.0,0.0,0.0,4.199931197521999,-2.5956676744423284,8.465405321656878,0.0,0.0,0.0,0.0,0.0,0.0,0.0,0.0,0.0
1702028661838060062,154,1702028661837818384,base_link,-0.14839867249874927,0.22956873055495564,-0.8642331362074631,-0.42234715369350817,0.0,0.0,0.0,0.0,0.0,0.0,0.0,0.0,0.0,0.015459699556231499,-0.013771876692771912,-0.00645274855196476,0.0,0.0,0.0,0.0,0.0,0.0,0.0,0.0,0.0,4.199931197521999,-2.5956676744423284,8.465405321656878,0.0,0.0,0.0,0.0,0.0,0.0,0.0,0.0,0.0
1702028661841900401,155,1702028661841478347,base_link,-0.14839867249874927,0.22956873055495564,-0.8642331362074631,-0.42234715369350817,0.0,0.0,0.0,0.0,0.0,0.0,0.0,0.0,0.0,0.009068867191672325,-0.011640731245279312,-0.01497514359652996,0.0,0.0,0.0,0.0,0.0,0.0,0.0,0.0,0.0,4.260141288024975,-2.5131703134136285,8.460211060123818,0.0,0.0,0.0,0.0,0.0,0.0,0.0,0.0,0.0
1702028661845047898,156,1702028661844662666,base_link,-0.14844468811260833,0.2295311620075881,-0.8642179610965657,-0.42238245223575716,0.0,0.0,0.0,0.0,0.0,0.0,0.0,0.0,0.0,0.009068867191672325,-0.011640731245279312,-0.01497514359652996,0.0,0.0,0.0,0.0,0.0,0.0,0.0,0.0,0.0,4.260141288024975,-2.5131703134136285,8.460211060123818,0.0,0.0,0.0,0.0,0.0,0.0,0.0,0.0,0.0
1702028661848546862,157,1702028661848171949,base_link,-0.14844468811260833,0.2295311620075881,-0.8642179610965657,-0.42238245223575716,0.0,0.0,0.0,0.0,0.0,0.0,0.0,0.0,0.0,0.011200091801583767,-0.005248597823083401,-0.016040682792663574,0.0,0.0,0.0,0.0,0.0,0.0,0.0,0.0,0.0,4.34204527488698,-2.5391847286787748,8.410658936401843,0.0,0.0,0.0,0.0,0.0,0.0,0.0,0.0,0.0
1702028661851620787,158,1702028661851384878,base_link,-0.14848916098215897,0.2294838732712614,-0.8642034572989752,-0.42242218854095814,0.0,0.0,0.0,0.0,0.0,0.0,0.0,0.0,0.0,0.011200091801583767,-0.005248597823083401,-0.016040682792663574,0.0,0.0,0.0,0.0,0.0,0.0,0.0,0.0,0.0,4.34204527488698,-2.5391847286787748,8.410658936401843,0.0,0.0,0.0,0.0,0.0,0.0,0.0,0.0,0.0
1702028661855074713,159,1702028661854824542,base_link,-0.14848916098215897,0.2294838732712614,-0.8642034572989752,-0.42242218854095814,0.0,0.0,0.0,0.0,0.0,0.0,0.0,0.0,0.0,0.010135538876056671,-0.006313340738415718,-0.011779891327023506,0.0,0.0,0.0,0.0,0.0,0.0,0.0,0.0,0.0,4.274388405992138,-2.503286023659265,8.45595428313518,0.0,0.0,0.0,0.0,0.0,0.0,0.0,0.0,0.0
1702028661858362084,160,1702028661858020782,base_link,-0.1485333583034391,0.229436779726895,-0.8641993227138931,-0.42244068956541414,0.0,0.0,0.0,0.0,0.0,0.0,0.0,0.0,0.0,0.010135538876056671,-0.006313340738415718,-0.011779891327023506,0.0,0.0,0.0,0.0,0.0,0.0,0.0,0.0,0.0,4.274388405992138,-2.503286023659265,8.45595428313518,0.0,0.0,0.0,0.0,0.0,0.0,0.0,0.0,0.0
1702028661861799593,161,1702028661861483573,base_link,-0.1485333583034391,0.229436779726895,-0.8641993227138931,-0.42244068956541414,0.0,0.0,0.0,0.0,0.0,0.0,0.0,0.0,0.0,0.02078903838992119,-0.007378106005489826,-0.011780200526118279,0.0,0.0,0.0,0.0,0.0,0.0,0.0,0.0,0.0,4.254049247914949,-2.556648482034405,8.450243400969315,0.0,0.0,0.0,0.0,0.0,0.0,0.0,0.0,0.0
1702028661865129618,162,1702028661864661455,base_link,-0.14858673211705253,0.22935601123462884,-0.8641984053589997,-0.4224676547669396,0.0,0.0,0.0,0.0,0.0,0.0,0.0,0.0,0.0,0.02078903838992119,-0.007378106005489826,-0.011780200526118279,0.0,0.0,0.0,0.0,0.0,0.0,0.0,0.0,0.0,4.254049247914949,-2.556648482034405,8.450243400969315,0.0,0.0,0.0,0.0,0.0,0.0,0.0,0.0,0.0
1702028661868643249,163,1702028661868168115,base_link,-0.14858673211705253,0.22935601123462884,-0.8641984053589997,-0.4224676547669396,0.0,0.0,0.0,0.0,0.0,0.0,0.0,0.0,0.0,0.027181465178728104,-0.005247020162642002,-0.02136797271668911,0.0,0.0,0.0,0.0,0.0,0.0,0.0,0.0,0.0,4.267249588867525,-2.5471385592833995,8.446458790885186,0.0,0.0,0.0,0.0,0.0,0.0,0.0,0.0,0.0
1702028661871717727,164,1702028661871382236,base_link,-0.14864693094851156,0.22925801661591305,-0.8641883796128415,-0.42252017262973074,0.0,0.0,0.0,0.0,0.0,0.0,0.0,0.0,0.0,0.027181465178728104,-0.005247020162642002,-0.02136797271668911,0.0,0.0,0.0,0.0,0.0,0.0,0.0,0.0,0.0,4.267249588867525,-2.5471385592833995,8.446458790885186,0.0,0.0,0.0,0.0,0.0,0.0,0.0,0.0,0.0
1702028661875282746,165,1702028661874822854,base_link,-0.14864693094851156,0.22925801661591305,-0.8641883796128415,-0.42252017262973074,0.0,0.0,0.0,0.0,0.0,0.0,0.0,0.0,0.0,0.02824747934937477,0.001145174726843834,-0.030955776572227478,0.0,0.0,0.0,0.0,0.0,0.0,0.0,0.0,0.0,4.293616995833035,-2.583269796468085,8.422088235808829,0.0,0.0,0.0,0.0,0.0,0.0,0.0,0.0,0.0
1702028661878423915,166,1702028661878052234,base_link,-0.14870647127832082,0.2291313560997305,-0.8641681522739328,-0.42260928958945704,0.0,0.0,0.0,0.0,0.0,0.0,0.0,0.0,0.0,0.02824747934937477,0.001145174726843834,-0.030955776572227478,0.0,0.0,0.0,0.0,0.0,0.0,0.0,0.0,0.0,4.293616995833035,-2.583269796468085,8.422088235808829,0.0,0.0,0.0,0.0,0.0,0.0,0.0,0.0,0.0
1702028661881820064,167,1702028661881488323,base_link,-0.14870647127832082,0.2291313560997305,-0.8641681522739328,-0.42260928958945704,0.0,0.0,0.0,0.0,0.0,0.0,0.0,0.0,0.0,0.030378643423318863,-0.00524557288736105,-0.042674191296100616,0.0,0.0,0.0,0.0,0.0,0.0,0.0,0.0,0.0,4.245431357588424,-2.520599953158624,8.46539357999034,0.0,0.0,0.0,0.0,0.0,0.0,0.0,0.0,0.0
1702028661885126510,168,1702028661884662389,base_link,-0.14878791851564932,0.2290227632078058,-0.8641206044163313,-0.4227366914044677,0.0,0.0,0.0,0.0,0.0,0.0,0.0,0.0,0.0,0.030378643423318863,-0.00524557288736105,-0.042674191296100616,0.0,0.0,0.0,0.0,0.0,0.0,0.0,0.0,0.0,4.245431357588424,-2.520599953158624,8.46539357999034,0.0,0.0,0.0,0.0,0.0,0.0,0.0,0.0,0.0
1702028661888462623,169,1702028661888130664,base_link,-0.14878791851564932,0.2290227632078058,-0.8641206044163313,-0.4227366914044677,0.0,0.0,0.0,0.0,0.0,0.0,0.0,0.0,0.0,0.04209689423441887,-0.00844007357954979,-0.06611058115959167,0.0,0.0,0.0,0.0,0.0,0.0,0.0,0.0,0.0,4.2339024872569615,-2.5688665670112356,8.456653847077531,0.0,0.0,0.0,0.0,0.0,0.0,0.0,0.0,0.0
1702028661891619355,170,1702028661891375064,base_link,-0.14891459320258374,0.2288763263755387,-0.8640632213744175,-0.42288866220816457,0.0,0.0,0.0,0.0,0.0,0.0,0.0,0.0,0.0,0.04209689423441887,-0.00844007357954979,-0.06611058115959167,0.0,0.0,0.0,0.0,0.0,0.0,0.0,0.0,0.0,4.2339024872569615,-2.5688665670112356,8.456653847077531,0.0,0.0,0.0,0.0,0.0,0.0,0.0,0.0,0.0
1702028661895289917,171,1702028661894824266,base_link,-0.14891459320258374,0.2288763263755387,-0.8640632213744175,-0.42288866220816457,0.0,0.0,0.0,0.0,0.0,0.0,0.0,0.0,0.0,0.03250996023416519,-0.02228705957531929,-0.0490669310092926,0.0,0.0,0.0,0.0,0.0,0.0,0.0,0.0,0.0,4.308224035587075,-2.4838843417097696,8.444496683414522,0.0,0.0,0.0,0.0,0.0,0.0,0.0,0.0,0.0
1702028661898269992,172,1702028661898046970,base_link,-0.14907512545120796,0.2287580163284721,-0.8640136553170948,-0.42299737630718415,0.0,0.0,0.0,0.0,0.0,0.0,0.0,0.0,0.0,0.03250996023416519,-0.02228705957531929,-0.0490669310092926,0.0,0.0,0.0,0.0,0.0,0.0,0.0,0.0,0.0,4.308224035587075,-2.4838843417097696,8.444496683414522,0.0,0.0,0.0,0.0,0.0,0.0,0.0,0.0,0.0
1702028661901790000,173,1702028661901480436,base_link,-0.14907512545120796,0.2287580163284721,-0.8640136553170948,-0.42299737630718415,0.0,0.0,0.0,0.0,0.0,0.0,0.0,0.0,0.0,0.04209786653518677,-0.02654649317264557,-0.051198095083236694,0.0,0.0,0.0,0.0,0.0,0.0,0.0,0.0,0.0,4.4133494849087445,-2.4028025324612963,8.413613154528399,0.0,0.0,0.0,0.0,0.0,0.0,0.0,0.0,0.0
1702028661905086986,174,1702028661904640197,base_link,-0.1492588809035,0.2286256416206472,-0.863963209260832,-0.4231071678767758,0.0,0.0,0.0,0.0,0.0,0.0,0.0,0.0,0.0,0.04209786653518677,-0.02654649317264557,-0.051198095083236694,0.0,0.0,0.0,0.0,0.0,0.0,0.0,0.0,0.0,4.4133494849087445,-2.4028025324612963,8.413613154528399,0.0,0.0,0.0,0.0,0.0,0.0,0.0,0.0,0.0
1702028661908665170,175,1702028661908176422,base_link,-0.1492588809035,0.2286256416206472,-0.863963209260832,-0.4231071678767758,0.0,0.0,0.0,0.0,0.0,0.0,0.0,0.0,0.0,0.04422901198267937,-0.027610203251242638,-0.04054608568549156,0.0,0.0,0.0,0.0,0.0,0.0,0.0,0.0,0.0,4.4426004787994575,-2.3645314205390395,8.409060122692338,0.0,0.0,0.0,0.0,0.0,0.0,0.0,0.0,0.0
1702028661911881676,176,1702028661911380290,base_link,-0.14943264217920196,0.22849881921320594,-0.8639345226521765,-0.42317291458606987,0.0,0.0,0.0,0.0,0.0,0.0,0.0,0.0,0.0,0.04422901198267937,-0.027610203251242638,-0.04054608568549156,0.0,0.0,0.0,0.0,0.0,0.0,0.0,0.0,0.0,4.4426004787994575,-2.3645314205390395,8.409060122692338,0.0,0.0,0.0,0.0,0.0,0.0,0.0,0.0,0.0
1702028661915314887,177,1702028661914787769,base_link,-0.14943264217920196,0.22849881921320594,-0.8639345226521765,-0.42317291458606987,0.0,0.0,0.0,0.0,0.0,0.0,0.0,0.0,0.0,0.03996875137090683,-0.030804675072431564,-0.027763472869992256,0.0,0.0,0.0,0.0,0.0,0.0,0.0,0.0,0.0,4.530611147296393,-2.3276272315949633,8.372318323065079,0.0,0.0,0.0,0.0,0.0,0.0,0.0,0.0,0.0
1702028661918391321,178,1702028661918049812,base_link,-0.1495965410945341,0.2283939513985561,-0.8639200741668133,-0.4232011144937041,0.0,0.0,0.0,0.0,0.0,0.0,0.0,0.0,0.0,0.03996875137090683,-0.030804675072431564,-0.027763472869992256,0.0,0.0,0.0,0.0,0.0,0.0,0.0,0.0,0.0,4.530611147296393,-2.3276272315949633,8.372318323065079,0.0,0.0,0.0,0.0,0.0,0.0,0.0,0.0,0.0
1702028661921771213,179,1702028661921426773,base_link,-0.1495965410945341,0.2283939513985561,-0.8639200741668133,-0.4232011144937041,0.0,0.0,0.0,0.0,0.0,0.0,0.0,0.0,0.0,0.04103504866361618,-0.01908591017127037,-0.007523937150835991,0.0,0.0,0.0,0.0,0.0,0.0,0.0,0.0,0.0,4.493973522755921,-2.359345080356526,8.383179156415911,0.0,0.0,0.0,0.0,0.0,0.0,0.0,0.0,0.0
1702028661925000867,180,1702028661924662351,base_link,-0.14971369078721505,0.22827733757236016,-0.8639368681873509,-0.4231883218241928,0.0,0.0,0.0,0.0,0.0,0.0,0.0,0.0,0.0,0.04103504866361618,-0.01908591017127037,-0.007523937150835991,0.0,0.0,0.0,0.0,0.0,0.0,0.0,0.0,0.0,4.493973522755921,-2.359345080356526,8.383179156415911,0.0,0.0,0.0,0.0,0.0,0.0,0.0,0.0,0.0
1702028661928451260,181,1702028661928134441,base_link,-0.14971369078721505,0.22827733757236016,-0.8639368681873509,-0.4231883218241928,0.0,0.0,0.0,0.0,0.0,0.0,0.0,0.0,0.0,0.03464464098215103,-0.0126938596367836,-0.0011327750980854034,0.0,0.0,0.0,0.0,0.0,0.0,0.0,0.0,0.0,4.484112480895746,-2.3914680357445603,8.379356532138196,0.0,0.0,0.0,0.0,0.0,0.0,0.0,0.0,0.0
1702028661931704397,182,1702028661931378602,base_link,-0.14980077789501595,0.22817856842479628,-0.8639548210879328,-0.4231741189777284,0.0,0.0,0.0,0.0,0.0,0.0,0.0,0.0,0.0,0.03464464098215103,-0.0126938596367836,-0.0011327750980854034,0.0,0.0,0.0,0.0,0.0,0.0,0.0,0.0,0.0,4.484112480895746,-2.3914680357445603,8.379356532138196,0.0,0.0,0.0,0.0,0.0,0.0,0.0,0.0,0.0
1702028661935002178,183,1702028661934797525,base_link,-0.14980077789501595,0.22817856842479628,-0.8639548210879328,-0.4231741189777284,0.0,0.0,0.0,0.0,0.0,0.0,0.0,0.0,0.0,0.03358045965433121,-0.009497656486928463,-0.006459483876824379,0.0,0.0,0.0,0.0,0.0,0.0,0.0,0.0,0.0,4.344082786830446,-2.4533552119201514,8.435045521235061,0.0,0.0,0.0,0.0,0.0,0.0,0.0,0.0,0.0
1702028661938390247,184,1702028661938009738,base_link,-0.1498850167219872,0.22807302269794882,-0.8639684272358136,-0.423173409868041,0.0,0.0,0.0,0.0,0.0,0.0,0.0,0.0,0.0,0.03358045965433121,-0.009497656486928463,-0.006459483876824379,0.0,0.0,0.0,0.0,0.0,0.0,0.0,0.0,0.0,4.344082786830446,-2.4533552119201514,8.435045521235061,0.0,0.0,0.0,0.0,0.0,0.0,0.0,0.0,0.0
1702028661941527285,185,1702028661941277980,base_link,-0.1498850167219872,0.22807302269794882,-0.8639684272358136,-0.423173409868041,0.0,0.0,0.0,0.0,0.0,0.0,0.0,0.0,0.0,0.04103834927082062,-0.01801910623908043,-0.012851517647504807,0.0,0.0,0.0,0.0,0.0,0.0,0.0,0.0,0.0,4.316649801986581,-2.497350206480345,8.436218135705229,0.0,0.0,0.0,0.0,0.0,0.0,0.0,0.0,0.0
1702028661944833368,186,1702028661944495201,base_link,-0.1500083224873679,0.2279591694898167,-0.8639725418115571,-0.42318266413655925,0.0,0.0,0.0,0.0,0.0,0.0,0.0,0.0,0.0,0.04103834927082062,-0.01801910623908043,-0.012851517647504807,0.0,0.0,0.0,0.0,0.0,0.0,0.0,0.0,0.0,4.316649801986581,-2.497350206480345,8.436218135705229,0.0,0.0,0.0,0.0,0.0,0.0,0.0,0.0,0.0
1702028661948165276,187,1702028661947925090,base_link,-0.1500083224873679,0.2279591694898167,-0.8639725418115571,-0.42318266413655925,0.0,0.0,0.0,0.0,0.0,0.0,0.0,0.0,0.0,0.04103926569223404,-0.03186643868684769,-0.01924361288547516,0.0,0.0,0.0,0.0,0.0,0.0,0.0,0.0,0.0,4.322536671660568,-2.4231131568948334,8.454832899060321,0.0,0.0,0.0,0.0,0.0,0.0,0.0,0.0,0.0
1702028661951375029,188,1702028661951142311,base_link,-0.15018302509129036,0.22785777248529132,-0.8639624599133132,-0.4231958912288808,0.0,0.0,0.0,0.0,0.0,0.0,0.0,0.0,0.0,0.04103926569223404,-0.03186643868684769,-0.01924361288547516,0.0,0.0,0.0,0.0,0.0,0.0,0.0,0.0,0.0,4.322536671660568,-2.4231131568948334,8.454832899060321,0.0,0.0,0.0,0.0,0.0,0.0,0.0,0.0,0.0
1702028661954851173,189,1702028661954586029,base_link,-0.15018302509129036,0.22785777248529132,-0.8639624599133132,-0.4231958912288808,0.0,0.0,0.0,0.0,0.0,0.0,0.0,0.0,0.0,0.050627533346414566,-0.04997435584664345,-0.0203094482421875,0.0,0.0,0.0,0.0,0.0,0.0,0.0,0.0,0.0,4.289964559581355,-2.425245431023698,8.470796224490037,0.0,0.0,0.0,0.0,0.0,0.0,0.0,0.0,0.0
1702028661958113964,190,1702028661957850456,base_link,-0.15041844022522202,0.2277587358334368,-0.863949537312048,-0.4231919754320305,0.0,0.0,0.0,0.0,0.0,0.0,0.0,0.0,0.0,0.050627533346414566,-0.04997435584664345,-0.0203094482421875,0.0,0.0,0.0,0.0,0.0,0.0,0.0,0.0,0.0,4.289964559581355,-2.425245431023698,8.470796224490037,0.0,0.0,0.0,0.0,0.0,0.0,0.0,0.0,0.0
1702028661961522948,191,1702028661961265563,base_link,-0.15041844022522202,0.2277587358334368,-0.863949537312048,-0.4231919754320305,0.0,0.0,0.0,0.0,0.0,0.0,0.0,0.0,0.0,0.051693715155124664,-0.05849462002515793,-0.014983728528022766,0.0,0.0,0.0,0.0,0.0,0.0,0.0,0.0,0.0,4.3755601221071725,-2.3544040504702437,8.446967218176876,0.0,0.0,0.0,0.0,0.0,0.0,0.0,0.0,0.0
1702028661964737572,192,1702028661964481353,base_link,-0.15066362578914638,0.22766988745145061,-0.8639443207459605,-0.42316321303099225,0.0,0.0,0.0,0.0,0.0,0.0,0.0,0.0,0.0,0.051693715155124664,-0.05849462002515793,-0.014983728528022766,0.0,0.0,0.0,0.0,0.0,0.0,0.0,0.0,0.0,4.3755601221071725,-2.3544040504702437,8.446967218176876,0.0,0.0,0.0,0.0,0.0,0.0,0.0,0.0,0.0
1702028661968232007,193,1702028661967897176,base_link,-0.15066362578914638,0.22766988745145061,-0.8639443207459605,-0.42316321303099225,0.0,0.0,0.0,0.0,0.0,0.0,0.0,0.0,0.0,0.05062949284911156,-0.05423194169998169,-0.005396900698542595,0.0,0.0,0.0,0.0,0.0,0.0,0.0,0.0,0.0,4.3764507002984026,-2.3414755769550184,8.45009889826035,0.0,0.0,0.0,0.0,0.0,0.0,0.0,0.0,0.0
1702028661971453762,194,1702028661971174955,base_link,-0.15089367642096418,0.2275711778254902,-0.8639557189796108,-0.42311106471198373,0.0,0.0,0.0,0.0,0.0,0.0,0.0,0.0,0.0,0.05062949284911156,-0.05423194169998169,-0.005396900698542595,0.0,0.0,0.0,0.0,0.0,0.0,0.0,0.0,0.0,4.3764507002984026,-2.3414755769550184,8.45009889826035,0.0,0.0,0.0,0.0,0.0,0.0,0.0,0.0,0.0
1702028661974792247,195,1702028661974562644,base_link,-0.15089367642096418,0.2275711778254902,-0.8639557189796108,-0.42311106471198373,0.0,0.0,0.0,0.0,0.0,0.0,0.0,0.0,0.0,0.05276128649711609,-0.04144752770662308,0.005255196243524551,0.0,0.0,0.0,0.0,0.0,0.0,0.0,0.0,0.0,4.326903001556811,-2.2916530562492334,8.48918351108646,0.0,0.0,0.0,0.0,0.0,0.0,0.0,0.0,0.0
1702028661978104223,196,1702028661977825641,base_link,-0.15108197360047493,0.2274585655964772,-0.8639845973893302,-0.42304545106143815,0.0,0.0,0.0,0.0,0.0,0.0,0.0,0.0,0.0,0.05276128649711609,-0.04144752770662308,0.005255196243524551,0.0,0.0,0.0,0.0,0.0,0.0,0.0,0.0,0.0,4.326903001556811,-2.2916530562492334,8.48918351108646,0.0,0.0,0.0,0.0,0.0,0.0,0.0,0.0,0.0
1702028661981587259,197,1702028661981245756,base_link,-0.15108197360047493,0.2274585655964772,-0.8639845973893302,-0.42304545106143815,0.0,0.0,0.0,0.0,0.0,0.0,0.0,0.0,0.0,0.04743627458810806,-0.03185923770070076,0.008450491353869438,0.0,0.0,0.0,0.0,0.0,0.0,0.0,0.0,0.0,4.383939361532184,-2.356900399864319,8.441924909612037,0.0,0.0,0.0,0.0,0.0,0.0,0.0,0.0,0.0
1702028661984726254,198,1702028661984479188,base_link,-0.15122454776505023,0.22736374802271309,-0.8640173472510551,-0.42297858797765403,0.0,0.0,0.0,0.0,0.0,0.0,0.0,0.0,0.0,0.04743627458810806,-0.03185923770070076,0.008450491353869438,0.0,0.0,0.0,0.0,0.0,0.0,0.0,0.0,0.0,4.383939361532184,-2.356900399864319,8.441924909612037,0.0,0.0,0.0,0.0,0.0,0.0,0.0,0.0,0.0
1702028661988194758,199,1702028661987931728,base_link,-0.15122454776505023,0.22736374802271309,-0.8640173472510551,-0.42297858797765403,0.0,0.0,0.0,0.0,0.0,0.0,0.0,0.0,0.0,0.03252381086349487,-0.026532284915447235,0.010580651462078094,0.0,0.0,0.0,0.0,0.0,0.0,0.0,0.0,0.0,4.449627426497081,-2.365505924703971,8.40506974900003,0.0,0.0,0.0,0.0,0.0,0.0,0.0,0.0,0.0
1702028661991408367,200,1702028661991157054,base_link,-0.1513345650286816,0.22729086943404656,-0.8640464228096782,-0.42291901036639823,0.0,0.0,0.0,0.0,0.0,0.0,0.0,0.0,0.0,0.03252381086349487,-0.026532284915447235,0.010580651462078094,0.0,0.0,0.0,0.0,0.0,0.0,0.0,0.0,0.0,4.449627426497081,-2.365505924703971,8.40506974900003,0.0,0.0,0.0,0.0,0.0,0.0,0.0,0.0,0.0
1702028661994896249,201,1702028661994611740,base_link,-0.1513345650286816,0.22729086943404656,-0.8640464228096782,-0.42291901036639823,0.0,0.0,0.0,0.0,0.0,0.0,0.0,0.0,0.0,0.022937610745429993,-0.01481399405747652,0.010580344125628471,0.0,0.0,0.0,0.0,0.0,0.0,0.0,0.0,0.0,4.398628517958108,-2.3982053803908783,8.422628931305827,0.0,0.0,0.0,0.0,0.0,0.0,0.0,0.0,0.0
1702028661998084343,202,1702028661997826814,base_link,-0.1513932922382657,0.2272350080135228,-0.8640723150817371,-0.42287510745803014,0.0,0.0,0.0,0.0,0.0,0.0,0.0,0.0,0.0,0.022937610745429993,-0.01481399405747652,0.010580344125628471,0.0,0.0,0.0,0.0,0.0,0.0,0.0,0.0,0.0,4.398628517958108,-2.3982053803908783,8.422628931305827,0.0,0.0,0.0,0.0,0.0,0.0,0.0,0.0,0.0
1702028662001488172,203,1702028662001238107,base_link,-0.1513932922382657,0.2272350080135228,-0.8640723150817371,-0.42287510745803014,0.0,0.0,0.0,0.0,0.0,0.0,0.0,0.0,0.0,0.011220784857869148,-0.0009654965251684189,0.010580139234662056,0.0,0.0,0.0,0.0,0.0,0.0,0.0,0.0,0.0,4.309798205161817,-2.3506761236587264,8.48174281574517,0.0,0.0,0.0,0.0,0.0,0.0,0.0,0.0,0.0
1702028662004734120,204,1702028662004487752,base_link,-0.15139481931962495,0.22720104637556998,-0.8640989505075864,-0.42283838158416004,0.0,0.0,0.0,0.0,0.0,0.0,0.0,0.0,0.0,0.011220784857869148,-0.0009654965251684189,0.010580139234662056,0.0,0.0,0.0,0.0,0.0,0.0,0.0,0.0,0.0,4.309798205161817,-2.3506761236587264,8.48174281574517,0.0,0.0,0.0,0.0,0.0,0.0,0.0,0.0,0.0
1702028662008190009,205,1702028662007933616,base_link,-0.15139481931962495,0.22720104637556998,-0.8640989505075864,-0.42283838158416004,0.0,0.0,0.0,0.0,0.0,0.0,0.0,0.0,0.0,0.0037649990990757942,0.0022300854325294495,0.01697162166237831,0.0,0.0,0.0,0.0,0.0,0.0,0.0,0.0,0.0,4.377008874883718,-2.39465644494207,8.43489263831417,0.0,0.0,0.0,0.0,0.0,0.0,0.0,0.0,0.0
1702028662011507822,206,1702028662011157274,base_link,-0.15137614098818902,0.22718622530115268,-0.8641302703407393,-0.42278902404601115,0.0,0.0,0.0,0.0,0.0,0.0,0.0,0.0,0.0,0.0037649990990757942,0.0022300854325294495,0.01697162166237831,0.0,0.0,0.0,0.0,0.0,0.0,0.0,0.0,0.0,4.377008874883718,-2.39465644494207,8.43489263831417,0.0,0.0,0.0,0.0,0.0,0.0,0.0,0.0,0.0
1702028662014862407,207,1702028662014595985,base_link,-0.15137614098818902,0.22718622530115268,-0.8641302703407393,-0.42278902404601115,0.0,0.0,0.0,0.0,0.0,0.0,0.0,0.0,0.0,-0.002625502645969391,0.0032949931919574738,0.02336316928267479,0.0,0.0,0.0,0.0,0.0,0.0,0.0,0.0,0.0,4.356789663428542,-2.3514082562118412,8.457497445536772,0.0,0.0,0.0,0.0,0.0,0.0,0.0,0.0,0.0
1702028662018049887,208,1702028662017816781,base_link,-0.1513381420617857,0.2271903164613447,-0.8641647941699084,-0.4227298609996229,0.0,0.0,0.0,0.0,0.0,0.0,0.0,0.0,0.0,-0.002625502645969391,0.0032949931919574738,0.02336316928267479,0.0,0.0,0.0,0.0,0.0,0.0,0.0,0.0,0.0,4.356789663428542,-2.3514082562118412,8.457497445536772,0.0,0.0,0.0,0.0,0.0,0.0,0.0,0.0,0.0
1702028662021494553,209,1702028662021244049,base_link,-0.1513381420617857,0.2271903164613447,-0.8641647941699084,-0.4227298609996229,0.0,0.0,0.0,0.0,0.0,0.0,0.0,0.0,0.0,-0.0100813377648592,0.006490353494882584,0.02123265713453293,0.0,0.0,0.0,0.0,0.0,0.0,0.0,0.0,0.0,4.347062962622463,-2.3443897714684447,8.464448014987758,0.0,0.0,0.0,0.0,0.0,0.0,0.0,0.0,0.0
1702028662024827333,210,1702028662024486303,base_link,-0.15128990814910792,0.22720967257137575,-0.864192442301957,-0.42268019950125574,0.0,0.0,0.0,0.0,0.0,0.0,0.0,0.0,0.0,-0.0100813377648592,0.006490353494882584,0.02123265713453293,0.0,0.0,0.0,0.0,0.0,0.0,0.0,0.0,0.0,4.347062962622463,-2.3443897714684447,8.464448014987758,0.0,0.0,0.0,0.0,0.0,0.0,0.0,0.0,0.0
1702028662028364404,211,1702028662027912855,base_link,-0.15128990814910792,0.22720967257137575,-0.864192442301957,-0.42268019950125574,0.0,0.0,0.0,0.0,0.0,0.0,0.0,0.0,0.0,-0.012210882268846035,0.005424654111266136,0.02442849799990654,0.0,0.0,0.0,0.0,0.0,0.0,0.0,0.0,0.0,4.347660294641779,-2.4577152437781735,8.431932503459437,0.0,0.0,0.0,0.0,0.0,0.0,0.0,0.0,0.0
1702028662031669461,212,1702028662031277894,base_link,-0.1512394993270052,0.22723181612429616,-0.8642253574087587,-0.42261903316802246,0.0,0.0,0.0,0.0,0.0,0.0,0.0,0.0,0.0,-0.012210882268846035,0.005424654111266136,0.02442849799990654,0.0,0.0,0.0,0.0,0.0,0.0,0.0,0.0,0.0,4.347660294641779,-2.4577152437781735,8.431932503459437,0.0,0.0,0.0,0.0,0.0,0.0,0.0,0.0,0.0
1702028662034979614,213,1702028662034602642,base_link,-0.1512394993270052,0.22723181612429616,-0.8642253574087587,-0.42261903316802246,0.0,0.0,0.0,0.0,0.0,0.0,0.0,0.0,0.0,-0.006883551366627216,-0.0009672585874795914,0.021232714876532555,0.0,0.0,0.0,0.0,0.0,0.0,0.0,0.0,0.0,4.287285379568973,-2.4721179314362254,8.458594268979072,0.0,0.0,0.0,0.0,0.0,0.0,0.0,0.0,0.0
1702028662038153402,214,1702028662037821292,base_link,-0.15122222583671327,0.22724952649214414,-0.8642472212744005,-0.42257097822917716,0.0,0.0,0.0,0.0,0.0,0.0,0.0,0.0,0.0,-0.006883551366627216,-0.0009672585874795914,0.021232714876532555,0.0,0.0,0.0,0.0,0.0,0.0,0.0,0.0,0.0,4.287285379568973,-2.4721179314362254,8.458594268979072,0.0,0.0,0.0,0.0,0.0,0.0,0.0,0.0,0.0
1702028662041534909,215,1702028662041234493,base_link,-0.15122222583671327,0.22724952649214414,-0.8642472212744005,-0.42257097822917716,0.0,0.0,0.0,0.0,0.0,0.0,0.0,0.0,0.0,-0.007947959937155247,-0.010554568842053413,0.013775828294456005,0.0,0.0,0.0,0.0,0.0,0.0,0.0,0.0,0.0,4.348548371671066,-2.3962354116862086,8.449152792500438,0.0,0.0,0.0,0.0,0.0,0.0,0.0,0.0,0.0
1702028662044782808,216,1702028662044465303,base_link,-0.15122129191240682,0.2272664537524177,-0.8642584046678874,-0.42253933524828285,0.0,0.0,0.0,0.0,0.0,0.0,0.0,0.0,0.0,-0.007947959937155247,-0.010554568842053413,0.013775828294456005,0.0,0.0,0.0,0.0,0.0,0.0,0.0,0.0,0.0,4.348548371671066,-2.3962354116862086,8.449152792500438,0.0,0.0,0.0,0.0,0.0,0.0,0.0,0.0,0.0
1702028662048211524,217,1702028662047920942,base_link,-0.15122129191240682,0.2272664537524177,-0.8642584046678874,-0.42253933524828285,0.0,0.0,0.0,0.0,0.0,0.0,0.0,0.0,0.0,-0.004751325584948063,-0.003097694367170334,0.008449437096714973,0.0,0.0,0.0,0.0,0.0,0.0,0.0,0.0,0.0,4.388020032870722,-2.387930621763355,8.43107748373659,0.0,0.0,0.0,0.0,0.0,0.0,0.0,0.0,0.0
1702028662051417932,218,1702028662051139831,base_link,-0.15122156863728153,0.22727285504057915,-0.8642673524144275,-0.4225174908700696,0.0,0.0,0.0,0.0,0.0,0.0,0.0,0.0,0.0,-0.004751325584948063,-0.003097694367170334,0.008449437096714973,0.0,0.0,0.0,0.0,0.0,0.0,0.0,0.0,0.0,4.388020032870722,-2.387930621763355,8.43107748373659,0.0,0.0,0.0,0.0,0.0,0.0,0.0,0.0,0.0
1702028662054903236,219,1702028662054552078,base_link,-0.15122156863728153,0.22727285504057915,-0.8642673524144275,-0.4225174908700696,0.0,0.0,0.0,0.0,0.0,0.0,0.0,0.0,0.0,-0.002619887702167034,-0.005228227935731411,0.016971489414572716,0.0,0.0,0.0,0.0,0.0,0.0,0.0,0.0,0.0,4.438925365073679,-2.4064846611394226,8.399093592704288,0.0,0.0,0.0,0.0,0.0,0.0,0.0,0.0,0.0
1702028662058054154,220,1702028662057807445,base_link,-0.15123468616987118,0.22727359609215508,-0.8642917203215246,-0.4224625479283343,0.0,0.0,0.0,0.0,0.0,0.0,0.0,0.0,0.0,-0.002619887702167034,-0.005228227935731411,0.016971489414572716,0.0,0.0,0.0,0.0,0.0,0.0,0.0,0.0,0.0,4.438925365073679,-2.4064846611394226,8.399093592704288,0.0,0.0,0.0,0.0,0.0,0.0,0.0,0.0,0.0
1702028662061558559,221,1702028662061235904,base_link,-0.15123468616987118,0.22727359609215508,-0.8642917203215246,-0.4224625479283343,0.0,0.0,0.0,0.0,0.0,0.0,0.0,0.0,0.0,0.0005769701674580574,-0.010554583743214607,0.022297728806734085,0.0,0.0,0.0,0.0,0.0,0.0,0.0,0.0,0.0,4.423183610712981,-2.329103785347439,8.429159050759472,0.0,0.0,0.0,0.0,0.0,0.0,0.0,0.0,0.0
1702028662064781063,222,1702028662064481019,base_link,-0.15126056630524762,0.22728220630875756,-0.8643234464024524,-0.42238373521648087,0.0,0.0,0.0,0.0,0.0,0.0,0.0,0.0,0.0,0.0005769701674580574,-0.010554583743214607,0.022297728806734085,0.0,0.0,0.0,0.0,0.0,0.0,0.0,0.0,0.0,4.423183610712981,-2.329103785347439,8.429159050759472,0.0,0.0,0.0,0.0,0.0,0.0,0.0,0.0,0.0
1702028662068322588,223,1702028662067927598,base_link,-0.15126056630524762,0.22728220630875756,-0.8643234464024524,-0.42238373521648087,0.0,0.0,0.0,0.0,0.0,0.0,0.0,0.0,0.0,0.005904426798224449,-0.016946127638220787,0.025493435561656952,0.0,0.0,0.0,0.0,0.0,0.0,0.0,0.0,0.0,4.4118428694555325,-2.332795573000074,8.434080110470001,0.0,0.0,0.0,0.0,0.0,0.0,0.0,0.0,0.0
1702028662071490518,224,1702028662071145296,base_link,-0.15130597254105438,0.22728438138252924,-0.8643532889451667,-0.4223052267526888,0.0,0.0,0.0,0.0,0.0,0.0,0.0,0.0,0.0,0.005904426798224449,-0.016946127638220787,0.025493435561656952,0.0,0.0,0.0,0.0,0.0,0.0,0.0,0.0,0.0,4.4118428694555325,-2.332795573000074,8.434080110470001,0.0,0.0,0.0,0.0,0.0,0.0,0.0,0.0,0.0
1702028662074948055,225,1702028662074566602,base_link,-0.15130597254105438,0.22728438138252924,-0.8643532889451667,-0.4223052267526888,0.0,0.0,0.0,0.0,0.0,0.0,0.0,0.0,0.0,0.005905455909669399,-0.023337414488196373,0.01910172961652279,0.0,0.0,0.0,0.0,0.0,0.0,0.0,0.0,0.0,4.447134445440953,-2.366113199299653,8.406218148030216,0.0,0.0,0.0,0.0,0.0,0.0,0.0,0.0,0.0
1702028662078071124,226,1702028662077792882,base_link,-0.15137330446533961,0.22729295505102462,-0.8643738905994867,-0.42223430998596423,0.0,0.0,0.0,0.0,0.0,0.0,0.0,0.0,0.0,0.005905455909669399,-0.023337414488196373,0.01910172961652279,0.0,0.0,0.0,0.0,0.0,0.0,0.0,0.0,0.0,4.447134445440953,-2.366113199299653,8.406218148030216,0.0,0.0,0.0,0.0,0.0,0.0,0.0,0.0,0.0
1702028662081618701,227,1702028662081233739,base_link,-0.15137330446533961,0.22729295505102462,-0.8643738905994867,-0.42223430998596423,0.0,0.0,0.0,0.0,0.0,0.0,0.0,0.0,0.0,0.004841183312237263,-0.024402271956205368,0.018036335706710815,0.0,0.0,0.0,0.0,0.0,0.0,0.0,0.0,0.0,4.391982775827115,-2.3488767397625088,8.439980175227939,0.0,0.0,0.0,0.0,0.0,0.0,0.0,0.0,0.0
1702028662084834457,228,1702028662084470987,base_link,-0.15144549785413497,0.22730848301145867,-0.8643897705286588,-0.42216754889043173,0.0,0.0,0.0,0.0,0.0,0.0,0.0,0.0,0.0,0.004841183312237263,-0.024402271956205368,0.018036335706710815,0.0,0.0,0.0,0.0,0.0,0.0,0.0,0.0,0.0,4.391982775827115,-2.3488767397625088,8.439980175227939,0.0,0.0,0.0,0.0,0.0,0.0,0.0,0.0,0.0
1702028662088203157,229,1702028662087893486,base_link,-0.15144549785413497,0.22730848301145867,-0.8643897705286588,-0.42216754889043173,0.0,0.0,0.0,0.0,0.0,0.0,0.0,0.0,0.0,-0.004745268262922764,-0.02227134257555008,0.020166778936982155,0.0,0.0,0.0,0.0,0.0,0.0,0.0,0.0,0.0,4.348612405725069,-2.3884476317249264,8.45132463317329,0.0,0.0,0.0,0.0,0.0,0.0,0.0,0.0,0.0
1702028662091445322,230,1702028662091145753,base_link,-0.15149190405268098,0.22734415646532313,-0.8644072036873057,-0.4220959887763169,0.0,0.0,0.0,0.0,0.0,0.0,0.0,0.0,0.0,-0.004745268262922764,-0.02227134257555008,0.020166778936982155,0.0,0.0,0.0,0.0,0.0,0.0,0.0,0.0,0.0,4.348612405725069,-2.3884476317249264,8.45132463317329,0.0,0.0,0.0,0.0,0.0,0.0,0.0,0.0,0.0
1702028662094821649,231,1702028662094576120,base_link,-0.15149190405268098,0.22734415646532313,-0.8644072036873057,-0.4220959887763169,0.0,0.0,0.0,0.0,0.0,0.0,0.0,0.0,0.0,-0.0026138247922062874,-0.019075237214565277,0.015905655920505524,0.0,0.0,0.0,0.0,0.0,0.0,0.0,0.0,0.0,4.415804290445523,-2.369447996453928,8.421780611045588,0.0,0.0,0.0,0.0,0.0,0.0,0.0,0.0,0.0
1702028662098202299,232,1702028662097829103,base_link,-0.15152293495648328,0.22736643754792818,-0.8644265543134043,-0.42203321605863237,0.0,0.0,0.0,0.0,0.0,0.0,0.0,0.0,0.0,-0.0026138247922062874,-0.019075237214565277,0.015905655920505524,0.0,0.0,0.0,0.0,0.0,0.0,0.0,0.0,0.0,4.415804290445523,-2.369447996453928,8.421780611045588,0.0,0.0,0.0,0.0,0.0,0.0,0.0,0.0,0.0
1702028662101568672,233,1702028662101249456,base_link,-0.15152293495648328,0.22736643754792818,-0.8644265543134043,-0.42203321605863237,0.0,0.0,0.0,0.0,0.0,0.0,0.0,0.0,0.0,-0.007939165458083153,-0.011618362739682198,0.022297214716672897,0.0,0.0,0.0,0.0,0.0,0.0,0.0,0.0,0.0,4.487553902273751,-2.3911987152895122,8.377590863618574,0.0,0.0,0.0,0.0,0.0,0.0,0.0,0.0,0.0
1702028662104741139,234,1702028662104469299,base_link,-0.1515385899362951,0.2273895000103726,-0.864448546524248,-0.42197011915213506,0.0,0.0,0.0,0.0,0.0,0.0,0.0,0.0,0.0,-0.007939165458083153,-0.011618362739682198,0.022297214716672897,0.0,0.0,0.0,0.0,0.0,0.0,0.0,0.0,0.0,4.487553902273751,-2.3911987152895122,8.377590863618574,0.0,0.0,0.0,0.0,0.0,0.0,0.0,0.0,0.0
1702028662108218374,235,1702028662107920646,base_link,-0.1515385899362951,0.2273895000103726,-0.864448546524248,-0.42197011915213506,0.0,0.0,0.0,0.0,0.0,0.0,0.0,0.0,0.0,-0.0036770999431610107,-0.008422616869211197,0.023362433537840843,0.0,0.0,0.0,0.0,0.0,0.0,0.0,0.0,0.0,4.428919858486707,-2.5017357810392187,8.376514010551775,0.0,0.0,0.0,0.0,0.0,0.0,0.0,0.0,0.0
1702028662111637405,236,1702028662111266374,base_link,-0.15153038225274895,0.227400761285175,-0.8644784180644237,-0.42190579721318133,0.0,0.0,0.0,0.0,0.0,0.0,0.0,0.0,0.0,-0.0036770999431610107,-0.008422616869211197,0.023362433537840843,0.0,0.0,0.0,0.0,0.0,0.0,0.0,0.0,0.0,4.428919858486707,-2.5017357810392187,8.376514010551775,0.0,0.0,0.0,0.0,0.0,0.0,0.0,0.0,0.0
1702028662115133822,237,1702028662114643096,base_link,-0.15153038225274895,0.227400761285175,-0.8644784180644237,-0.42190579721318133,0.0,0.0,0.0,0.0,0.0,0.0,0.0,0.0,0.0,-0.005806644447147846,-0.0009659547358751297,0.016970813274383545,0.0,0.0,0.0,0.0,0.0,0.0,0.0,0.0,0.0,4.3397916188949095,-2.4629962381865886,8.434444749670735,0.0,0.0,0.0,0.0,0.0,0.0,0.0,0.0,0.0
1702028662118107605,238,1702028662117830753,base_link,-0.1514954804237664,0.22740724936653434,-0.8644978424752396,-0.42187503209170213,0.0,0.0,0.0,0.0,0.0,0.0,0.0,0.0,0.0,-0.005806644447147846,-0.0009659547358751297,0.016970813274383545,0.0,0.0,0.0,0.0,0.0,0.0,0.0,0.0,0.0,4.3397916188949095,-2.4629962381865886,8.434444749670735,0.0,0.0,0.0,0.0,0.0,0.0,0.0,0.0,0.0
1702028662121545303,239,1702028662121248722,base_link,-0.1514954804237664,0.22740724936653434,-0.8644978424752396,-0.42187503209170213,0.0,0.0,0.0,0.0,0.0,0.0,0.0,0.0,0.0,-0.012197417207062244,0.010751673951745033,0.006318149156868458,0.0,0.0,0.0,0.0,0.0,0.0,0.0,0.0,0.0,4.276508618117985,-2.524511873006201,8.44856874519071,0.0,0.0,0.0,0.0,0.0,0.0,0.0,0.0,0.0
1702028662124731735,240,1702028662124480247,base_link,-0.15143584226975831,0.22741548758658653,-0.8645019241901787,-0.4218836388784029,0.0,0.0,0.0,0.0,0.0,0.0,0.0,0.0,0.0,-0.012197417207062244,0.010751673951745033,0.006318149156868458,0.0,0.0,0.0,0.0,0.0,0.0,0.0,0.0,0.0,4.276508618117985,-2.524511873006201,8.44856874519071,0.0,0.0,0.0,0.0,0.0,0.0,0.0,0.0,0.0
1702028662128224521,241,1702028662127942323,base_link,-0.15143584226975831,0.22741548758658653,-0.8645019241901787,-0.4218836388784029,0.0,0.0,0.0,0.0,0.0,0.0,0.0,0.0,0.0,-0.01113147009164095,0.015012513846158981,-0.0011387411504983902,0.0,0.0,0.0,0.0,0.0,0.0,0.0,0.0,0.0,4.280675267934066,-2.5284993872275483,8.445265543444298,0.0,0.0,0.0,0.0,0.0,0.0,0.0,0.0,0.0
1702028662131507106,242,1702028662131152153,base_link,-0.15138128206823617,0.22742042646253594,-0.8644988130232615,-0.4219069320932608,0.0,0.0,0.0,0.0,0.0,0.0,0.0,0.0,0.0,-0.01113147009164095,0.015012513846158981,-0.0011387411504983902,0.0,0.0,0.0,0.0,0.0,0.0,0.0,0.0,0.0,4.280675267934066,-2.5284993872275483,8.445265543444298,0.0,0.0,0.0,0.0,0.0,0.0,0.0,0.0,0.0
1702028662134825269,243,1702028662134568452,base_link,-0.15138128206823617,0.22742042646253594,-0.8644988130232615,-0.4219069320932608,0.0,0.0,0.0,0.0,0.0,0.0,0.0,0.0,0.0,-0.009000338613986969,0.0011641494929790497,-0.0064651258289813995,0.0,0.0,0.0,0.0,0.0,0.0,0.0,0.0,0.0,4.307539656138818,-2.5509949420733666,8.424816135460024,0.0,0.0,0.0,0.0,0.0,0.0,0.0,0.0,0.0
1702028662138083283,244,1702028662137803554,base_link,-0.15135942368135757,0.2274231507146542,-0.8644884077621504,-0.42193462553662126,0.0,0.0,0.0,0.0,0.0,0.0,0.0,0.0,0.0,-0.009000338613986969,0.0011641494929790497,-0.0064651258289813995,0.0,0.0,0.0,0.0,0.0,0.0,0.0,0.0,0.0,4.307539656138818,-2.5509949420733666,8.424816135460024,0.0,0.0,0.0,0.0,0.0,0.0,0.0,0.0,0.0
1702028662141573171,245,1702028662141223907,base_link,-0.15135942368135757,0.2274231507146542,-0.8644884077621504,-0.42193462553662126,0.0,0.0,0.0,0.0,0.0,0.0,0.0,0.0,0.0,-0.010065039619803429,-0.0009661335498094559,-0.012856818735599518,0.0,0.0,0.0,0.0,0.0,0.0,0.0,0.0,0.0,4.291915090134278,-2.551195302028623,8.432725976218176,0.0,0.0,0.0,0.0,0.0,0.0,0.0,0.0,0.0
1702028662144698054,246,1702028662144459724,base_link,-0.1513445998792428,0.22742386402282233,-0.8644662459037186,-0.42198496164372057,0.0,0.0,0.0,0.0,0.0,0.0,0.0,0.0,0.0,-0.010065039619803429,-0.0009661335498094559,-0.012856818735599518,0.0,0.0,0.0,0.0,0.0,0.0,0.0,0.0,0.0,4.291915090134278,-2.551195302028623,8.432725976218176,0.0,0.0,0.0,0.0,0.0,0.0,0.0,0.0,0.0
1702028662148185735,247,1702028662147900104,base_link,-0.1513445998792428,0.22742386402282233,-0.8644662459037186,-0.42198496164372057,0.0,0.0,0.0,0.0,0.0,0.0,0.0,0.0,0.0,-0.007934071123600006,0.004360511898994446,-0.02350960485637188,0.0,0.0,0.0,0.0,0.0,0.0,0.0,0.0,0.0,4.33863834530525,-2.4939931576021563,8.425925197773866,0.0,0.0,0.0,0.0,0.0,0.0,0.0,0.0,0.0
1702028662151367577,248,1702028662151120185,base_link,-0.15132625455411156,0.22741490160414585,-0.8644306739112957,-0.42206923272404506,0.0,0.0,0.0,0.0,0.0,0.0,0.0,0.0,0.0,-0.007934071123600006,0.004360511898994446,-0.02350960485637188,0.0,0.0,0.0,0.0,0.0,0.0,0.0,0.0,0.0,4.33863834530525,-2.4939931576021563,8.425925197773866,0.0,0.0,0.0,0.0,0.0,0.0,0.0,0.0,0.0
1702028662154786229,249,1702028662154547452,base_link,-0.15132625455411156,0.22741490160414585,-0.8644306739112957,-0.42206923272404506,0.0,0.0,0.0,0.0,0.0,0.0,0.0,0.0,0.0,-0.006868444383144379,0.00862187147140503,-0.025640277191996574,0.0,0.0,0.0,0.0,0.0,0.0,0.0,0.0,0.0,4.373958776410953,-2.385152263008413,8.439166623815616,0.0,0.0,0.0,0.0,0.0,0.0,0.0,0.0,0.0
1702028662158161913,250,1702028662157797336,base_link,-0.15130883048426444,0.2273951932304079,-0.8643951590864155,-0.42215882421330486,0.0,0.0,0.0,0.0,0.0,0.0,0.0,0.0,0.0,-0.006868444383144379,0.00862187147140503,-0.025640277191996574,0.0,0.0,0.0,0.0,0.0,0.0,0.0,0.0,0.0,4.373958776410953,-2.385152263008413,8.439166623815616,0.0,0.0,0.0,0.0,0.0,0.0,0.0,0.0,0.0
1702028662161558752,251,1702028662161211729,base_link,-0.15130883048426444,0.2273951932304079,-0.8643951590864155,-0.42215882421330486,0.0,0.0,0.0,0.0,0.0,0.0,0.0,0.0,0.0,-0.011129127815365791,0.0054263584315776825,-0.021379346027970314,0.0,0.0,0.0,0.0,0.0,0.0,0.0,0.0,0.0,4.467533027181121,-2.3319450716078807,8.404949781768456,0.0,0.0,0.0,0.0,0.0,0.0,0.0,0.0,0.0
1702028662164774063,252,1702028662164473295,base_link,-0.15128041221230673,0.2273954669742031,-0.8643637558331093,-0.42223315369892456,0.0,0.0,0.0,0.0,0.0,0.0,0.0,0.0,0.0,-0.011129127815365791,0.0054263584315776825,-0.021379346027970314,0.0,0.0,0.0,0.0,0.0,0.0,0.0,0.0,0.0,4.467533027181121,-2.3319450716078807,8.404949781768456,0.0,0.0,0.0,0.0,0.0,0.0,0.0,0.0,0.0
1702028662168277800,253,1702028662167919397,base_link,-0.15128041221230673,0.2273954669742031,-0.8643637558331093,-0.42223315369892456,0.0,0.0,0.0,0.0,0.0,0.0,0.0,0.0,0.0,-0.019650772213935852,0.016078894957900047,-0.008596202358603477,0.0,0.0,0.0,0.0,0.0,0.0,0.0,0.0,0.0,4.466329485082895,-2.244738618875456,8.429297091905607,0.0,0.0,0.0,0.0,0.0,0.0,0.0,0.0,0.0
1702028662171420463,254,1702028662171129226,base_link,-0.15120555224284435,0.22741454627083035,-0.8643483580714323,-0.4222812108235316,0.0,0.0,0.0,0.0,0.0,0.0,0.0,0.0,0.0,-0.019650772213935852,0.016078894957900047,-0.008596202358603477,0.0,0.0,0.0,0.0,0.0,0.0,0.0,0.0,0.0,4.466329485082895,-2.244738618875456,8.429297091905607,0.0,0.0,0.0,0.0,0.0,0.0,0.0,0.0,0.0
1702028662174942690,255,1702028662174577474,base_link,-0.15120555224284435,0.22741454627083035,-0.8643483580714323,-0.4222812108235316,0.0,0.0,0.0,0.0,0.0,0.0,0.0,0.0,0.0,-0.02710704132914543,0.020339475944638252,0.005252312868833542,0.0,0.0,0.0,0.0,0.0,0.0,0.0,0.0,0.0,4.456234037180543,-2.271167094293685,8.427560633758217,0.0,0.0,0.0,0.0,0.0,0.0,0.0,0.0,0.0
1702028662178109672,256,1702028662177814245,base_link,-0.15111742663633446,0.22744811236996365,-0.864350035802051,-0.42229124446896277,0.0,0.0,0.0,0.0,0.0,0.0,0.0,0.0,0.0,-0.02710704132914543,0.020339475944638252,0.005252312868833542,0.0,0.0,0.0,0.0,0.0,0.0,0.0,0.0,0.0,4.456234037180543,-2.271167094293685,8.427560633758217,0.0,0.0,0.0,0.0,0.0,0.0,0.0,0.0,0.0
1702028662181578013,257,1702028662181238412,base_link,-0.15111742663633446,0.22744811236996365,-0.864350035802051,-0.42229124446896277,0.0,0.0,0.0,0.0,0.0,0.0,0.0,0.0,0.0,-0.024975746870040894,0.018208354711532593,0.0191008523106575,0.0,0.0,0.0,0.0,0.0,0.0,0.0,0.0,0.0,4.3781529428538954,-2.3608710213702095,8.443818142844751,0.0,0.0,0.0,0.0,0.0,0.0,0.0,0.0,0.0
1702028662184746979,258,1702028662184486865,base_link,-0.151028596127703,0.22749287312771546,-0.8643666597518654,-0.42226488527604955,0.0,0.0,0.0,0.0,0.0,0.0,0.0,0.0,0.0,-0.024975746870040894,0.018208354711532593,0.0191008523106575,0.0,0.0,0.0,0.0,0.0,0.0,0.0,0.0,0.0,4.3781529428538954,-2.3608710213702095,8.443818142844751,0.0,0.0,0.0,0.0,0.0,0.0,0.0,0.0,0.0
1702028662188181345,259,1702028662187922716,base_link,-0.151028596127703,0.22749287312771546,-0.8643666597518654,-0.42226488527604955,0.0,0.0,0.0,0.0,0.0,0.0,0.0,0.0,0.0,-0.028170745819807053,0.012881459668278694,0.022296784445643425,0.0,0.0,0.0,0.0,0.0,0.0,0.0,0.0,0.0,4.408012575343245,-2.346538289997814,8.432270346068725,0.0,0.0,0.0,0.0,0.0,0.0,0.0,0.0,0.0
1702028662191513486,260,1702028662191163539,base_link,-0.15094175296123602,0.22754884414142257,-0.8643846393750549,-0.4222289733726804,0.0,0.0,0.0,0.0,0.0,0.0,0.0,0.0,0.0,-0.028170745819807053,0.012881459668278694,0.022296784445643425,0.0,0.0,0.0,0.0,0.0,0.0,0.0,0.0,0.0,4.408012575343245,-2.346538289997814,8.432270346068725,0.0,0.0,0.0,0.0,0.0,0.0,0.0,0.0,0.0
1702028662194868419,261,1702028662194593429,base_link,-0.15094175296123602,0.22754884414142257,-0.8643846393750549,-0.4222289733726804,0.0,0.0,0.0,0.0,0.0,0.0,0.0,0.0,0.0,-0.030300484970211983,0.01820712722837925,0.01910114847123623,0.0,0.0,0.0,0.0,0.0,0.0,0.0,0.0,0.0,4.329265853225361,-2.406863883109335,8.45603118609911,0.0,0.0,0.0,0.0,0.0,0.0,0.0,0.0,0.0
1702028662198161254,262,1702028662197829961,base_link,-0.15083756591061437,0.22759741368849157,-0.8644034515141277,-0.4222015146857407,0.0,0.0,0.0,0.0,0.0,0.0,0.0,0.0,0.0,-0.030300484970211983,0.01820712722837925,0.01910114847123623,0.0,0.0,0.0,0.0,0.0,0.0,0.0,0.0,0.0,4.329265853225361,-2.406863883109335,8.45603118609911,0.0,0.0,0.0,0.0,0.0,0.0,0.0,0.0,0.0
1702028662201531115,263,1702028662201258897,base_link,-0.15083756591061437,0.22759741368849157,-0.8644034515141277,-0.4222015146857407,0.0,0.0,0.0,0.0,0.0,0.0,0.0,0.0,0.0,-0.03029971942305565,0.01501072384417057,0.014840228483080864,0.0,0.0,0.0,0.0,0.0,0.0,0.0,0.0,0.0,4.370321530499694,-2.3907614209997448,8.439463818745248,0.0,0.0,0.0,0.0,0.0,0.0,0.0,0.0,0.0
1702028662204828761,264,1702028662204477787,base_link,-0.1507416450136322,0.22765712973690266,-0.8644114193646547,-0.4221872639132094,0.0,0.0,0.0,0.0,0.0,0.0,0.0,0.0,0.0,-0.03029971942305565,0.01501072384417057,0.014840228483080864,0.0,0.0,0.0,0.0,0.0,0.0,0.0,0.0,0.0,4.370321530499694,-2.3907614209997448,8.439463818745248,0.0,0.0,0.0,0.0,0.0,0.0,0.0,0.0,0.0
1702028662208174398,265,1702028662207926511,base_link,-0.1507416450136322,0.22765712973690266,-0.8644114193646547,-0.4221872639132094,0.0,0.0,0.0,0.0,0.0,0.0,0.0,0.0,0.0,-0.03242959827184677,0.011814458295702934,0.012709854170680046,0.0,0.0,0.0,0.0,0.0,0.0,0.0,0.0,0.0,4.330013421311319,-2.3972789868497966,8.458370837842962,0.0,0.0,0.0,0.0,0.0,0.0,0.0,0.0,0.0
1702028662211425320,266,1702028662211135149,base_link,-0.15066068578848588,0.22772436644738514,-0.8644102071807509,-0.42218238286978677,0.0,0.0,0.0,0.0,0.0,0.0,0.0,0.0,0.0,-0.03242959827184677,0.011814458295702934,0.012709854170680046,0.0,0.0,0.0,0.0,0.0,0.0,0.0,0.0,0.0,4.330013421311319,-2.3972789868497966,8.458370837842962,0.0,0.0,0.0,0.0,0.0,0.0,0.0,0.0,0.0
1702028662214876935,267,1702028662214579820,base_link,-0.15066068578848588,0.22772436644738514,-0.8644102071807509,-0.42218238286978677,0.0,0.0,0.0,0.0,0.0,0.0,0.0,0.0,0.0,-0.03136375546455383,-0.0030994005501270294,0.013775249011814594,0.0,0.0,0.0,0.0,0.0,0.0,0.0,0.0,0.0,4.352935392490593,-2.41698663799276,8.44097915295182,0.0,0.0,0.0,0.0,0.0,0.0,0.0,0.0,0.0
1702028662218056278,268,1702028662217812061,base_link,-0.1506181388903226,0.2278048760684616,-0.8644064686844658,-0.4221617836482833,0.0,0.0,0.0,0.0,0.0,0.0,0.0,0.0,0.0,-0.03136375546455383,-0.0030994005501270294,0.013775249011814594,0.0,0.0,0.0,0.0,0.0,0.0,0.0,0.0,0.0,4.352935392490593,-2.41698663799276,8.44097915295182,0.0,0.0,0.0,0.0,0.0,0.0,0.0,0.0,0.0
1702028662221510071,269,1702028662221210718,base_link,-0.1506181388903226,0.2278048760684616,-0.8644064686844658,-0.4221617836482833,0.0,0.0,0.0,0.0,0.0,0.0,0.0,0.0,0.0,-0.03455900028347969,-0.005229939706623554,0.010579584166407585,0.0,0.0,0.0,0.0,0.0,0.0,0.0,0.0,0.0,4.336530813256114,-2.5028179181142782,8.424393329756535,0.0,0.0,0.0,0.0,0.0,0.0,0.0,0.0,0.0
1702028662224729216,270,1702028662224457740,base_link,-0.15057348461316647,0.22789670814278373,-0.8643971651532626,-0.42214719829004504,0.0,0.0,0.0,0.0,0.0,0.0,0.0,0.0,0.0,-0.03455900028347969,-0.005229939706623554,0.010579584166407585,0.0,0.0,0.0,0.0,0.0,0.0,0.0,0.0,0.0,4.336530813256114,-2.5028179181142782,8.424393329756535,0.0,0.0,0.0,0.0,0.0,0.0,0.0,0.0,0.0
1702028662228846780,271,1702028662228319883,base_link,-0.15057348461316647,0.22789670814278373,-0.8643971651532626,-0.42214719829004504,0.0,0.0,0.0,0.0,0.0,0.0,0.0,0.0,0.0,-0.03775431215763092,-0.0030993949621915817,0.0063186706975102425,0.0,0.0,0.0,0.0,0.0,0.0,0.0,0.0,0.0,4.397717180608446,-2.4959227199067593,8.39466815160877,0.0,0.0,0.0,0.0,0.0,0.0,0.0,0.0,0.0
1702028662231914863,272,1702028662231405496,base_link,-0.15052457113935752,0.22799035154283342,-0.864379239863743,-0.42215078204270273,0.0,0.0,0.0,0.0,0.0,0.0,0.0,0.0,0.0,-0.03775431215763092,-0.0030993949621915817,0.0063186706975102425,0.0,0.0,0.0,0.0,0.0,0.0,0.0,0.0,0.0,4.397717180608446,-2.4959227199067593,8.39466815160877,0.0,0.0,0.0,0.0,0.0,0.0,0.0,0.0,0.0
1702028662235853370,273,1702028662234827756,base_link,-0.15052457113935752,0.22799035154283342,-0.864379239863743,-0.42215078204270273,0.0,0.0,0.0,0.0,0.0,0.0,0.0,0.0,0.0,-0.03881914168596268,-0.0052298689261078835,0.009514612145721912,0.0,0.0,0.0,0.0,0.0,0.0,0.0,0.0,0.0,4.38507423098111,-2.5028445109976514,8.399219805586371,0.0,0.0,0.0,0.0,0.0,0.0,0.0,0.0,0.0
1702028662235982221,274,1702028662235339403,base_link,-0.1504810162848841,0.22809512895449355,-0.8643653334253468,-0.4221381838421993,0.0,0.0,0.0,0.0,0.0,0.0,0.0,0.0,0.0,-0.03881914168596268,-0.0052298689261078835,0.009514612145721912,0.0,0.0,0.0,0.0,0.0,0.0,0.0,0.0,0.0,4.38507423098111,-2.5028445109976514,8.399219805586371,0.0,0.0,0.0,0.0,0.0,0.0,0.0,0.0,0.0
1702028662241551220,275,1702028662241207599,base_link,-0.1504810162848841,0.22809512895449355,-0.8643653334253468,-0.4221381838421993,0.0,0.0,0.0,0.0,0.0,0.0,0.0,0.0,0.0,-0.036688126623630524,-0.00842561386525631,0.012710567563772202,0.0,0.0,0.0,0.0,0.0,0.0,0.0,0.0,0.0,4.368944591735868,-2.5030187663070476,8.407569221234915,0.0,0.0,0.0,0.0,0.0,0.0,0.0,0.0,0.0
1702028662244659150,276,1702028662244428634,base_link,-0.1504345359308272,0.2281995595813366,-0.8643579892304013,-0.42211334717080246,0.0,0.0,0.0,0.0,0.0,0.0,0.0,0.0,0.0,-0.036688126623630524,-0.00842561386525631,0.012710567563772202,0.0,0.0,0.0,0.0,0.0,0.0,0.0,0.0,0.0,4.368944591735868,-2.5030187663070476,8.407569221234915,0.0,0.0,0.0,0.0,0.0,0.0,0.0,0.0,0.0
1702028662248063916,277,1702028662247852802,base_link,-0.1504345359308272,0.2281995595813366,-0.8643579892304013,-0.42211334717080246,0.0,0.0,0.0,0.0,0.0,0.0,0.0,0.0,0.0,-0.036687545478343964,-0.0009689107537269592,0.01803707145154476,0.0,0.0,0.0,0.0,0.0,0.0,0.0,0.0,0.0,4.361143729786802,-2.3944863244340544,8.443154659855496,0.0,0.0,0.0,0.0,0.0,0.0,0.0,0.0,0.0
1702028662251406002,278,1702028662251135349,base_link,-0.15036346216640092,0.22829151382058663,-0.8643581645403243,-0.422088589463539,0.0,0.0,0.0,0.0,0.0,0.0,0.0,0.0,0.0,-0.036687545478343964,-0.0009689107537269592,0.01803707145154476,0.0,0.0,0.0,0.0,0.0,0.0,0.0,0.0,0.0,4.361143729786802,-2.3944863244340544,8.443154659855496,0.0,0.0,0.0,0.0,0.0,0.0,0.0,0.0,0.0
1702028662254932040,279,1702028662254605770,base_link,-0.15036346216640092,0.22829151382058663,-0.8643581645403243,-0.422088589463539,0.0,0.0,0.0,0.0,0.0,0.0,0.0,0.0,0.0,-0.028164822608232498,0.0064876489341259,0.010580362752079964,0.0,0.0,0.0,0.0,0.0,0.0,0.0,0.0,0.0,4.326378043839802,-2.5617706139814183,8.411883519350594,0.0,0.0,0.0,0.0,0.0,0.0,0.0,0.0,0.0
1702028662258165791,280,1702028662257819652,base_link,-0.15028697793736867,0.22834610280659917,-0.8643603649847654,-0.42208179425188896,0.0,0.0,0.0,0.0,0.0,0.0,0.0,0.0,0.0,-0.028164822608232498,0.0064876489341259,0.010580362752079964,0.0,0.0,0.0,0.0,0.0,0.0,0.0,0.0,0.0,4.326378043839802,-2.5617706139814183,8.411883519350594,0.0,0.0,0.0,0.0,0.0,0.0,0.0,0.0,0.0
1702028662261523392,281,1702028662261253118,base_link,-0.15028697793736867,0.22834610280659917,-0.8643603649847654,-0.42208179425188896,0.0,0.0,0.0,0.0,0.0,0.0,0.0,0.0,0.0,-0.021772606298327446,0.008617917075753212,0.004188837483525276,0.0,0.0,0.0,0.0,0.0,0.0,0.0,0.0,0.0,4.322488988977878,-2.4992238661308313,8.43267270840788,0.0,0.0,0.0,0.0,0.0,0.0,0.0,0.0,0.0
1702028662264751117,282,1702028662264479398,base_link,-0.15022860157618234,0.2283811249462094,-0.8643569815797402,-0.422090555960601,0.0,0.0,0.0,0.0,0.0,0.0,0.0,0.0,0.0,-0.021772606298327446,0.008617917075753212,0.004188837483525276,0.0,0.0,0.0,0.0,0.0,0.0,0.0,0.0,0.0,4.322488988977878,-2.4992238661308313,8.43267270840788,0.0,0.0,0.0,0.0,0.0,0.0,0.0,0.0,0.0
1702028662268221693,283,1702028662267949819,base_link,-0.15022860157618234,0.2283811249462094,-0.8643569815797402,-0.422090555960601,0.0,0.0,0.0,0.0,0.0,0.0,0.0,0.0,0.0,-0.016445660963654518,0.0054220277816057205,0.0020583197474479675,0.0,0.0,0.0,0.0,0.0,0.0,0.0,0.0,0.0,4.284248714090983,-2.4667370145172196,8.461703224352673,0.0,0.0,0.0,0.0,0.0,0.0,0.0,0.0,0.0
1702028662271373786,284,1702028662271127223,base_link,-0.15019275524026637,0.22840874231862024,-0.8643512451041511,-0.4221001158406227,0.0,0.0,0.0,0.0,0.0,0.0,0.0,0.0,0.0,-0.016445660963654518,0.0054220277816057205,0.0020583197474479675,0.0,0.0,0.0,0.0,0.0,0.0,0.0,0.0,0.0,4.284248714090983,-2.4667370145172196,8.461703224352673,0.0,0.0,0.0,0.0,0.0,0.0,0.0,0.0,0.0
1702028662275155581,285,1702028662274585485,base_link,-0.15019275524026637,0.22840874231862024,-0.8643512451041511,-0.4221001158406227,0.0,0.0,0.0,0.0,0.0,0.0,0.0,0.0,0.0,-0.017510326579213142,-0.002034747041761875,0.004188841208815575,0.0,0.0,0.0,0.0,0.0,0.0,0.0,0.0,0.0,4.363212726517854,-2.446090472171416,8.427278095868493,0.0,0.0,0.0,0.0,0.0,0.0,0.0,0.0,0.0
1702028662275161786,286,1702028662274852514,base_link,-0.15017360472752722,0.2284444834159505,-0.8643499550102871,-0.42209022935111223,0.0,0.0,0.0,0.0,0.0,0.0,0.0,0.0,0.0,-0.017510326579213142,-0.002034747041761875,0.004188841208815575,0.0,0.0,0.0,0.0,0.0,0.0,0.0,0.0,0.0,4.363212726517854,-2.446090472171416,8.427278095868493,0.0,0.0,0.0,0.0,0.0,0.0,0.0,0.0,0.0
1702028662281894606,287,1702028662281247854,base_link,-0.15017360472752722,0.2284444834159505,-0.8643499550102871,-0.42209022935111223,0.0,0.0,0.0,0.0,0.0,0.0,0.0,0.0,0.0,-0.013248545117676258,-0.00416523776948452,0.010580422356724739,0.0,0.0,0.0,0.0,0.0,0.0,0.0,0.0,0.0,4.309129989403457,-2.4445748363999336,8.455498365186054,0.0,0.0,0.0,0.0,0.0,0.0,0.0,0.0,0.0
1702028662281904123,288,1702028662281480789,base_link,-0.15015313606983435,0.2284779578534824,-0.8643571574397251,-0.42206464301835833,0.0,0.0,0.0,0.0,0.0,0.0,0.0,0.0,0.0,-0.013248545117676258,-0.00416523776948452,0.010580422356724739,0.0,0.0,0.0,0.0,0.0,0.0,0.0,0.0,0.0,4.309129989403457,-2.4445748363999336,8.455498365186054,0.0,0.0,0.0,0.0,0.0,0.0,0.0,0.0,0.0
1702028662288388710,289,1702028662287908077,base_link,-0.15015313606983435,0.2284779578534824,-0.8643571574397251,-0.42206464301835833,0.0,0.0,0.0,0.0,0.0,0.0,0.0,0.0,0.0,-0.015378301031887531,9.573251008987427e-05,0.014841495081782341,0.0,0.0,0.0,0.0,0.0,0.0,0.0,0.0,0.0,4.369618943031842,-2.5404288659677503,8.395990201855593,0.0,0.0,0.0,0.0,0.0,0.0,0.0,0.0,0.0
1702028662288435648,290,1702028662288139581,base_link,-0.1501230006353613,0.22850990273261504,-0.8643727224768067,-0.42202619074104814,0.0,0.0,0.0,0.0,0.0,0.0,0.0,0.0,0.0,-0.015378301031887531,9.573251008987427e-05,0.014841495081782341,0.0,0.0,0.0,0.0,0.0,0.0,0.0,0.0,0.0,4.369618943031842,-2.5404288659677503,8.395990201855593,0.0,0.0,0.0,0.0,0.0,0.0,0.0,0.0,0.0
1702028662295010657,291,1702028662294556617,base_link,-0.1501230006353613,0.22850990273261504,-0.8643727224768067,-0.42202619074104814,0.0,0.0,0.0,0.0,0.0,0.0,0.0,0.0,0.0,-0.011116355657577515,0.00222603976726532,0.02016782946884632,0.0,0.0,0.0,0.0,0.0,0.0,0.0,0.0,0.0,4.337738995749643,-2.550431736345381,8.409477888846322,0.0,0.0,0.0,0.0,0.0,0.0,0.0,0.0,0.0
1702028662295019549,292,1702028662294766902,base_link,-0.1500816671702434,0.22852559201020142,-0.8643953520117171,-0.4219860452625499,0.0,0.0,0.0,0.0,0.0,0.0,0.0,0.0,0.0,-0.011116355657577515,0.00222603976726532,0.02016782946884632,0.0,0.0,0.0,0.0,0.0,0.0,0.0,0.0,0.0,4.337738995749643,-2.550431736345381,8.409477888846322,0.0,0.0,0.0,0.0,0.0,0.0,0.0,0.0,0.0
1702028662301892810,293,1702028662301253795,base_link,-0.1500816671702434,0.22852559201020142,-0.8643953520117171,-0.4219860452625499,0.0,0.0,0.0,0.0,0.0,0.0,0.0,0.0,0.0,-0.004723867401480675,0.0022258423268795013,0.014841465279459953,0.0,0.0,0.0,0.0,0.0,0.0,0.0,0.0,0.0,4.320154784555567,-2.5396935077665868,8.421770569428373,0.0,0.0,0.0,0.0,0.0,0.0,0.0,0.0,0.0
1702028662301901186,294,1702028662301510095,base_link,-0.1500494062125021,0.22852172673805055,-0.8644110084270422,-0.4219675397635217,0.0,0.0,0.0,0.0,0.0,0.0,0.0,0.0,0.0,-0.004723867401480675,0.0022258423268795013,0.014841465279459953,0.0,0.0,0.0,0.0,0.0,0.0,0.0,0.0,0.0,4.320154784555567,-2.5396935077665868,8.421770569428373,0.0,0.0,0.0,0.0,0.0,0.0,0.0,0.0,0.0
1702028662308534235,295,1702028662307922363,base_link,-0.1500494062125021,0.22852172673805055,-0.8644110084270422,-0.4219675397635217,0.0,0.0,0.0,0.0,0.0,0.0,0.0,0.0,0.0,-0.010049461387097836,0.0054215844720602036,-0.00113757885992527,0.0,0.0,0.0,0.0,0.0,0.0,0.0,0.0,0.0,4.251585130687798,-2.553229798299562,8.452516872126882,0.0,0.0,0.0,0.0,0.0,0.0,0.0,0.0,0.0
1702028662308544137,296,1702028662308159828,base_link,-0.15002169046868638,0.2285288199216896,-0.864403184933687,-0.4219895789360394,0.0,0.0,0.0,0.0,0.0,0.0,0.0,0.0,0.0,-0.010049461387097836,0.0054215844720602036,-0.00113757885992527,0.0,0.0,0.0,0.0,0.0,0.0,0.0,0.0,0.0,4.251585130687798,-2.553229798299562,8.452516872126882,0.0,0.0,0.0,0.0,0.0,0.0,0.0,0.0,0.0
1702028662315192890,297,1702028662314571380,base_link,-0.15002169046868638,0.2285288199216896,-0.864403184933687,-0.4219895789360394,0.0,0.0,0.0,0.0,0.0,0.0,0.0,0.0,0.0,-0.006853132508695126,-0.0020349761471152306,-0.012855596840381622,0.0,0.0,0.0,0.0,0.0,0.0,0.0,0.0,0.0,4.309702561012424,-2.610862682548504,8.405347101011273,0.0,0.0,0.0,0.0,0.0,0.0,0.0,0.0,0.0
1702028662315205814,298,1702028662314799070,base_link,-0.15002922473160557,0.2285362474090118,-0.8643821674869648,-0.4220259279679116,0.0,0.0,0.0,0.0,0.0,0.0,0.0,0.0,0.0,-0.006853132508695126,-0.0020349761471152306,-0.012855596840381622,0.0,0.0,0.0,0.0,0.0,0.0,0.0,0.0,0.0,4.309702561012424,-2.610862682548504,8.405347101011273,0.0,0.0,0.0,0.0,0.0,0.0,0.0,0.0,0.0
1702028662321886138,299,1702028662321227788,base_link,-0.15002922473160557,0.2285362474090118,-0.8643821674869648,-0.4220259279679116,0.0,0.0,0.0,0.0,0.0,0.0,0.0,0.0,0.0,-0.004722090438008308,-0.01268705166876316,-0.009659947827458382,0.0,0.0,0.0,0.0,0.0,0.0,0.0,0.0,0.0,4.328005364364022,-2.457740916489613,8.442030511283946,0.0,0.0,0.0,0.0,0.0,0.0,0.0,0.0,0.0
1702028662321911369,300,1702028662321454524,base_link,-0.15007218080813425,0.22856098614687786,-0.8643553816447251,-0.42205211808597626,0.0,0.0,0.0,0.0,0.0,0.0,0.0,0.0,0.0,-0.004722090438008308,-0.01268705166876316,-0.009659947827458382,0.0,0.0,0.0,0.0,0.0,0.0,0.0,0.0,0.0,4.328005364364022,-2.457740916489613,8.442030511283946,0.0,0.0,0.0,0.0,0.0,0.0,0.0,0.0,0.0
1702028662328518850,301,1702028662327906847,base_link,-0.15007218080813425,0.22856098614687786,-0.8643553816447251,-0.42205211808597626,0.0,0.0,0.0,0.0,0.0,0.0,0.0,0.0,0.0,-0.017504869028925896,-0.014816860668361187,-0.0075294990092515945,0.0,0.0,0.0,0.0,0.0,0.0,0.0,0.0,0.0,4.448154693756802,-2.4033435019190943,8.395109280539033,0.0,0.0,0.0,0.0,0.0,0.0,0.0,0.0,0.0
1702028662328525564,302,1702028662328129053,base_link,-0.15008332367936694,0.22860815854763333,-0.864328808227093,-0.42207702741033865,0.0,0.0,0.0,0.0,0.0,0.0,0.0,0.0,0.0,-0.017504869028925896,-0.014816860668361187,-0.0075294990092515945,0.0,0.0,0.0,0.0,0.0,0.0,0.0,0.0,0.0,4.448154693756802,-2.4033435019190943,8.395109280539033,0.0,0.0,0.0,0.0,0.0,0.0,0.0,0.0,0.0
1702028662335343790,303,1702028662334655523,base_link,-0.15008332367936694,0.22860815854763333,-0.864328808227093,-0.42207702741033865,0.0,0.0,0.0,0.0,0.0,0.0,0.0,0.0,0.0,-0.02602655440568924,0.003292810171842575,-0.006464224308729172,0.0,0.0,0.0,0.0,0.0,0.0,0.0,0.0,0.0,4.486017262827402,-2.3672101520685143,8.385223027061256,0.0,0.0,0.0,0.0,0.0,0.0,0.0,0.0,0.0
1702028662335371533,304,1702028662334927320,base_link,-0.15004885006024296,0.2286491127880012,-0.8643029730760027,-0.42212000254529664,0.0,0.0,0.0,0.0,0.0,0.0,0.0,0.0,0.0,-0.02602655440568924,0.003292810171842575,-0.006464224308729172,0.0,0.0,0.0,0.0,0.0,0.0,0.0,0.0,0.0,4.486017262827402,-2.3672101520685143,8.385223027061256,0.0,0.0,0.0,0.0,0.0,0.0,0.0,0.0,0.0
1702028662341753890,305,1702028662341230869,base_link,-0.15004885006024296,0.2286491127880012,-0.8643029730760027,-0.42212000254529664,0.0,0.0,0.0,0.0,0.0,0.0,0.0,0.0,0.0,-0.01856926456093788,0.007553929463028908,-0.010725300759077072,0.0,0.0,0.0,0.0,0.0,0.0,0.0,0.0,0.0,4.430325881804941,-2.3940882270550263,8.407172779364405,0.0,0.0,0.0,0.0,0.0,0.0,0.0,0.0,0.0
1702028662341762062,306,1702028662341467142,base_link,-0.15002461269712902,0.22866676938389952,-0.8642814749923179,-0.4221630681972435,0.0,0.0,0.0,0.0,0.0,0.0,0.0,0.0,0.0,-0.01856926456093788,0.007553929463028908,-0.010725300759077072,0.0,0.0,0.0,0.0,0.0,0.0,0.0,0.0,0.0,4.430325881804941,-2.3940882270550263,8.407172779364405,0.0,0.0,0.0,0.0,0.0,0.0,0.0,0.0,0.0
1702028662348460378,307,1702028662347901105,base_link,-0.15002461269712902,0.22866676938389952,-0.8642814749923179,-0.4221630681972435,0.0,0.0,0.0,0.0,0.0,0.0,0.0,0.0,0.0,-0.014307710342109203,-0.003098476678133011,-0.008594835177063942,0.0,0.0,0.0,0.0,0.0,0.0,0.0,0.0,0.0,4.392689439029731,-2.4241068091127977,8.418312519160217,0.0,0.0,0.0,0.0,0.0,0.0,0.0,0.0,0.0
1702028662348484339,308,1702028662348129987,base_link,-0.150031424869575,0.22868879924471328,-0.8642578668089108,-0.4221970444123542,0.0,0.0,0.0,0.0,0.0,0.0,0.0,0.0,0.0,-0.014307710342109203,-0.003098476678133011,-0.008594835177063942,0.0,0.0,0.0,0.0,0.0,0.0,0.0,0.0,0.0,4.392689439029731,-2.4241068091127977,8.418312519160217,0.0,0.0,0.0,0.0,0.0,0.0,0.0,0.0,0.0
1702028662355069821,309,1702028662354566812,base_link,-0.150031424869575,0.22868879924471328,-0.8642578668089108,-0.4221970444123542,0.0,0.0,0.0,0.0,0.0,0.0,0.0,0.0,0.0,-0.011111454106867313,-0.006293825805187225,-0.011790726333856583,0.0,0.0,0.0,0.0,0.0,0.0,0.0,0.0,0.0,4.4196312335633285,-2.3652795410796417,8.42094486692922,0.0,0.0,0.0,0.0,0.0,0.0,0.0,0.0,0.0
1702028662355077466,310,1702028662354795932,base_link,-0.15004965273336257,0.2287121244010421,-0.8642296489715757,-0.4222356921258868,0.0,0.0,0.0,0.0,0.0,0.0,0.0,0.0,0.0,-0.011111454106867313,-0.006293825805187225,-0.011790726333856583,0.0,0.0,0.0,0.0,0.0,0.0,0.0,0.0,0.0,4.4196312335633285,-2.3652795410796417,8.42094486692922,0.0,0.0,0.0,0.0,0.0,0.0,0.0,0.0,0.0
1702028662361792922,311,1702028662361233711,base_link,-0.15004965273336257,0.2287121244010421,-0.8642296489715757,-0.4222356921258868,0.0,0.0,0.0,0.0,0.0,0.0,0.0,0.0,0.0,-0.023894216865301132,-0.004162905737757683,-0.006464438512921333,0.0,0.0,0.0,0.0,0.0,0.0,0.0,0.0,0.0,4.515593376704112,-2.351696452652522,8.373705288033936,0.0,0.0,0.0,0.0,0.0,0.0,0.0,0.0,0.0
1702028662361826424,312,1702028662361460924,base_link,-0.15003372588351813,0.228770980999562,-0.8642027211848615,-0.42226458062059596,0.0,0.0,0.0,0.0,0.0,0.0,0.0,0.0,0.0,-0.023894216865301132,-0.004162905737757683,-0.006464438512921333,0.0,0.0,0.0,0.0,0.0,0.0,0.0,0.0,0.0,4.515593376704112,-2.351696452652522,8.373705288033936,0.0,0.0,0.0,0.0,0.0,0.0,0.0,0.0,0.0
1702028662368400514,313,1702028662367908239,base_link,-0.15003372588351813,0.228770980999562,-0.8642027211848615,-0.42226458062059596,0.0,0.0,0.0,0.0,0.0,0.0,0.0,0.0,0.0,-0.03348113223910332,0.005424458533525467,0.00631882157176733,0.0,0.0,0.0,0.0,0.0,0.0,0.0,0.0,0.0,4.460523965053015,-2.281465444810176,8.422508022039805,0.0,0.0,0.0,0.0,0.0,0.0,0.0,0.0,0.0
1702028662368409067,314,1702028662368138313,base_link,-0.14995904693659617,0.22885517243549908,-0.8641933401562718,-0.4222646860926594,0.0,0.0,0.0,0.0,0.0,0.0,0.0,0.0,0.0,-0.03348113223910332,0.005424458533525467,0.00631882157176733,0.0,0.0,0.0,0.0,0.0,0.0,0.0,0.0,0.0,4.460523965053015,-2.281465444810176,8.422508022039805,0.0,0.0,0.0,0.0,0.0,0.0,0.0,0.0,0.0
1702028662375173129,315,1702028662374570846,base_link,-0.14995904693659617,0.22885517243549908,-0.8641933401562718,-0.4222646860926594,0.0,0.0,0.0,0.0,0.0,0.0,0.0,0.0,0.0,-0.03987213969230652,0.01607659086585045,0.018036941066384315,0.0,0.0,0.0,0.0,0.0,0.0,0.0,0.0,0.0,4.422841508396751,-2.3376241663705937,8.426979663462049,0.0,0.0,0.0,0.0,0.0,0.0,0.0,0.0,0.0
1702028662375181319,316,1702028662374801397,base_link,-0.14984337827728503,0.2289414802024451,-0.8642011596942838,-0.4222429587479453,0.0,0.0,0.0,0.0,0.0,0.0,0.0,0.0,0.0,-0.03987213969230652,0.01607659086585045,0.018036941066384315,0.0,0.0,0.0,0.0,0.0,0.0,0.0,0.0,0.0,4.422841508396751,-2.3376241663705937,8.426979663462049,0.0,0.0,0.0,0.0,0.0,0.0,0.0,0.0,0.0
1702028662381712807,317,1702028662381201744,base_link,-0.14984337827728503,0.2289414802024451,-0.8642011596942838,-0.4222429587479453,0.0,0.0,0.0,0.0,0.0,0.0,0.0,0.0,0.0,-0.044132523238658905,0.018206343054771423,0.02442879043519497,0.0,0.0,0.0,0.0,0.0,0.0,0.0,0.0,0.0,4.394161734849481,-2.4566562098470612,8.408102218372735,0.0,0.0,0.0,0.0,0.0,0.0,0.0,0.0,0.0
1702028662381721681,318,1702028662381403684,base_link,-0.1497102674132904,0.22902352566129341,-0.8642180390109424,-0.4222111338806606,0.0,0.0,0.0,0.0,0.0,0.0,0.0,0.0,0.0,-0.044132523238658905,0.018206343054771423,0.02442879043519497,0.0,0.0,0.0,0.0,0.0,0.0,0.0,0.0,0.0,4.394161734849481,-2.4566562098470612,8.408102218372735,0.0,0.0,0.0,0.0,0.0,0.0,0.0,0.0,0.0
1702028662388522919,319,1702028662387903690,base_link,-0.1497102674132904,0.22902352566129341,-0.8642180390109424,-0.4222111338806606,0.0,0.0,0.0,0.0,0.0,0.0,0.0,0.0,0.0,-0.03774014860391617,0.028857989236712456,0.0254942886531353,0.0,0.0,0.0,0.0,0.0,0.0,0.0,0.0,0.0,4.350638915450863,-2.449383288404803,8.43282055624616,0.0,0.0,0.0,0.0,0.0,0.0,0.0,0.0,0.0
1702028662388535847,320,1702028662388124942,base_link,-0.14955573006630157,0.22909573881606388,-0.8642392726648321,-0.42218326073450546,0.0,0.0,0.0,0.0,0.0,0.0,0.0,0.0,0.0,-0.03774014860391617,0.028857989236712456,0.0254942886531353,0.0,0.0,0.0,0.0,0.0,0.0,0.0,0.0,0.0,4.350638915450863,-2.449383288404803,8.43282055624616,0.0,0.0,0.0,0.0,0.0,0.0,0.0,0.0,0.0
1702028662395159152,321,1702028662394562721,base_link,-0.14955573006630157,0.22909573881606388,-0.8642392726648321,-0.42218326073450546,0.0,0.0,0.0,0.0,0.0,0.0,0.0,0.0,0.0,-0.038804687559604645,0.02779174968600273,0.022298747673630714,0.0,0.0,0.0,0.0,0.0,0.0,0.0,0.0,0.0,4.324876889561721,-2.4980790056756037,8.431787543073991,0.0,0.0,0.0,0.0,0.0,0.0,0.0,0.0,0.0
1702028662395205418,322,1702028662394788503,base_link,-0.14940876010587123,0.2291586065811962,-0.8642590549852437,-0.4221606818610707,0.0,0.0,0.0,0.0,0.0,0.0,0.0,0.0,0.0,-0.038804687559604645,0.02779174968600273,0.022298747673630714,0.0,0.0,0.0,0.0,0.0,0.0,0.0,0.0,0.0,4.324876889561721,-2.4980790056756037,8.431787543073991,0.0,0.0,0.0,0.0,0.0,0.0,0.0,0.0,0.0
1702028662401675009,323,1702028662401219844,base_link,-0.14940876010587123,0.2291586065811962,-0.8642590549852437,-0.4221606818610707,0.0,0.0,0.0,0.0,0.0,0.0,0.0,0.0,0.0,-0.035608142614364624,0.01820356771349907,0.02336421050131321,0.0,0.0,0.0,0.0,0.0,0.0,0.0,0.0,0.0,4.24333763645905,-2.4765479458483166,8.479433706028052,0.0,0.0,0.0,0.0,0.0,0.0,0.0,0.0,0.0
1702028662401706444,324,1702028662401442050,base_link,-0.14923769951620988,0.22924715204779814,-0.8642867426288152,-0.42211642805884164,0.0,0.0,0.0,0.0,0.0,0.0,0.0,0.0,0.0,-0.035608142614364624,0.01820356771349907,0.02336421050131321,0.0,0.0,0.0,0.0,0.0,0.0,0.0,0.0,0.0,4.24333763645905,-2.4765479458483166,8.479433706028052,0.0,0.0,0.0,0.0,0.0,0.0,0.0,0.0,0.0
1702028662408507418,325,1702028662407903671,base_link,-0.14923769951620988,0.22924715204779814,-0.8642867426288152,-0.42211642805884164,0.0,0.0,0.0,0.0,0.0,0.0,0.0,0.0,0.0,-0.02602001279592514,0.008615640923380852,0.01803802326321602,0.0,0.0,0.0,0.0,0.0,0.0,0.0,0.0,0.0,4.29010071474483,-2.564411086675525,8.429640065618553,0.0,0.0,0.0,0.0,0.0,0.0,0.0,0.0,0.0
1702028662408520048,326,1702028662408127069,base_link,-0.14916507485576352,0.22928343356669342,-0.8642896165676032,-0.4221165078844556,0.0,0.0,0.0,0.0,0.0,0.0,0.0,0.0,0.0,-0.02602001279592514,0.008615640923380852,0.01803802326321602,0.0,0.0,0.0,0.0,0.0,0.0,0.0,0.0,0.0,4.29010071474483,-2.564411086675525,8.429640065618553,0.0,0.0,0.0,0.0,0.0,0.0,0.0,0.0,0.0
1702028662415087597,327,1702028662414544105,base_link,-0.14916507485576352,0.22928343356669342,-0.8642896165676032,-0.4221165078844556,0.0,0.0,0.0,0.0,0.0,0.0,0.0,0.0,0.0,-0.020692966878414154,0.0011585894972085953,0.012711748480796814,0.0,0.0,0.0,0.0,0.0,0.0,0.0,0.0,0.0,4.279212101275442,-2.594398979957001,8.425997728761615,0.0,0.0,0.0,0.0,0.0,0.0,0.0,0.0,0.0
1702028662415146198,328,1702028662414745807,base_link,-0.14911862628580463,0.22932536950977422,-0.8642911272341439,-0.4221070451652907,0.0,0.0,0.0,0.0,0.0,0.0,0.0,0.0,0.0,-0.020692966878414154,0.0011585894972085953,0.012711748480796814,0.0,0.0,0.0,0.0,0.0,0.0,0.0,0.0,0.0,4.279212101275442,-2.594398979957001,8.425997728761615,0.0,0.0,0.0,0.0,0.0,0.0,0.0,0.0,0.0
1702028662421590595,329,1702028662421237945,base_link,-0.14911862628580463,0.22932536950977422,-0.8642911272341439,-0.4221070451652907,0.0,0.0,0.0,0.0,0.0,0.0,0.0,0.0,0.0,-0.015365956351161003,-0.003102445974946022,0.008450692519545555,0.0,0.0,0.0,0.0,0.0,0.0,0.0,0.0,0.0,4.286346837178546,-2.564942756992139,8.43138775319716,0.0,0.0,0.0,0.0,0.0,0.0,0.0,0.0,0.0
1702028662424709701,330,1702028662424455881,base_link,-0.1490964955628417,0.2293517879152822,-0.8642952547486279,-0.42209205750635387,0.0,0.0,0.0,0.0,0.0,0.0,0.0,0.0,0.0,-0.015365956351161003,-0.003102445974946022,0.008450692519545555,0.0,0.0,0.0,0.0,0.0,0.0,0.0,0.0,0.0,4.286346837178546,-2.564942756992139,8.43138775319716,0.0,0.0,0.0,0.0,0.0,0.0,0.0,0.0,0.0
1702028662429144966,331,1702028662428184747,base_link,-0.1490964955628417,0.2293517879152822,-0.8642952547486279,-0.42209205750635387,0.0,0.0,0.0,0.0,0.0,0.0,0.0,0.0,0.0,-0.020691625773906708,-0.002037147991359234,0.004189629107713699,0.0,0.0,0.0,0.0,0.0,0.0,0.0,0.0,0.0,4.3160445468341475,-2.5628526284318416,8.416860808798209,0.0,0.0,0.0,0.0,0.0,0.0,0.0,0.0,0.0
1702028662429153934,332,1702028662428627014,base_link,-0.14905013137261908,0.22939149986224083,-0.8642901237635097,-0.42209735854849123,0.0,0.0,0.0,0.0,0.0,0.0,0.0,0.0,0.0,-0.020691625773906708,-0.002037147991359234,0.004189629107713699,0.0,0.0,0.0,0.0,0.0,0.0,0.0,0.0,0.0,4.3160445468341475,-2.5628526284318416,8.416860808798209,0.0,0.0,0.0,0.0,0.0,0.0,0.0,0.0,0.0
1702028662435053614,333,1702028662434599161,base_link,-0.14905013137261908,0.22939149986224083,-0.8642901237635097,-0.42209735854849123,0.0,0.0,0.0,0.0,0.0,0.0,0.0,0.0,0.0,-0.01642996445298195,0.002223920077085495,-0.002201968804001808,0.0,0.0,0.0,0.0,0.0,0.0,0.0,0.0,0.0,4.33345134370449,-2.589052476435643,8.399881351900646,0.0,0.0,0.0,0.0,0.0,0.0,0.0,0.0,0.0
1702028662438156213,334,1702028662437857627,base_link,-0.14900791097087063,0.22942287993657473,-0.8642788176171986,-0.4221183602355175,0.0,0.0,0.0,0.0,0.0,0.0,0.0,0.0,0.0,-0.01642996445298195,0.002223920077085495,-0.002201968804001808,0.0,0.0,0.0,0.0,0.0,0.0,0.0,0.0,0.0,4.33345134370449,-2.589052476435643,8.399881351900646,0.0,0.0,0.0,0.0,0.0,0.0,0.0,0.0,0.0
1702028662441665534,335,1702028662441269159,base_link,-0.14900791097087063,0.22942287993657473,-0.8642788176171986,-0.4221183602355175,0.0,0.0,0.0,0.0,0.0,0.0,0.0,0.0,0.0,-0.02175586298108101,9.362027049064636e-05,-0.012854641303420067,0.0,0.0,0.0,0.0,0.0,0.0,0.0,0.0,0.0,4.344579757066774,-2.573306754760223,8.39897131084462,0.0,0.0,0.0,0.0,0.0,0.0,0.0,0.0,0.0
1702028662444750638,336,1702028662444492816,base_link,-0.14900428147489567,0.22944442914371466,-0.8642341762351521,-0.4221993210134437,0.0,0.0,0.0,0.0,0.0,0.0,0.0,0.0,0.0,-0.02175586298108101,9.362027049064636e-05,-0.012854641303420067,0.0,0.0,0.0,0.0,0.0,0.0,0.0,0.0,0.0,4.344579757066774,-2.573306754760223,8.39897131084462,0.0,0.0,0.0,0.0,0.0,0.0,0.0,0.0,0.0
1702028662448238794,337,1702028662447928905,base_link,-0.14900428147489567,0.22944442914371466,-0.8642341762351521,-0.4221993210134437,0.0,0.0,0.0,0.0,0.0,0.0,0.0,0.0,0.0,-0.020690297707915306,-0.004167003557085991,-0.014985216781497002,0.0,0.0,0.0,0.0,0.0,0.0,0.0,0.0,0.0,4.360894378049322,-2.591634228995571,8.384869244454345,0.0,0.0,0.0,0.0,0.0,0.0,0.0,0.0,0.0
1702028662451538428,338,1702028662451158046,base_link,-0.14902035565525795,0.22945788022998978,-0.8641885480098777,-0.4222797275377065,0.0,0.0,0.0,0.0,0.0,0.0,0.0,0.0,0.0,-0.020690297707915306,-0.004167003557085991,-0.014985216781497002,0.0,0.0,0.0,0.0,0.0,0.0,0.0,0.0,0.0,4.360894378049322,-2.591634228995571,8.384869244454345,0.0,0.0,0.0,0.0,0.0,0.0,0.0,0.0,0.0
1702028662454812901,339,1702028662454572916,base_link,-0.14902035565525795,0.22945788022998978,-0.8641885480098777,-0.4222797275377065,0.0,0.0,0.0,0.0,0.0,0.0,0.0,0.0,0.0,-0.008972074836492538,-0.007362221367657185,-0.023507453501224518,0.0,0.0,0.0,0.0,0.0,0.0,0.0,0.0,0.0,4.347676140018587,-2.5815279883562936,8.39484516991506,0.0,0.0,0.0,0.0,0.0,0.0,0.0,0.0,0.0
1702028662458078895,340,1702028662457801580,base_link,-0.14906091270254224,0.22944479809917306,-0.8641335988566203,-0.4223849574222792,0.0,0.0,0.0,0.0,0.0,0.0,0.0,0.0,0.0,-0.008972074836492538,-0.007362221367657185,-0.023507453501224518,0.0,0.0,0.0,0.0,0.0,0.0,0.0,0.0,0.0,4.347676140018587,-2.5815279883562936,8.39484516991506,0.0,0.0,0.0,0.0,0.0,0.0,0.0,0.0,0.0
1702028662461513903,341,1702028662461243391,base_link,-0.14906091270254224,0.22944479809917306,-0.8641335988566203,-0.4223849574222792,0.0,0.0,0.0,0.0,0.0,0.0,0.0,0.0,0.0,-0.002580198459327221,-0.010557232424616814,-0.026703452691435814,0.0,0.0,0.0,0.0,0.0,0.0,0.0,0.0,0.0,4.411719833498258,-2.506006221741491,8.384310402609808,0.0,0.0,0.0,0.0,0.0,0.0,0.0,0.0,0.0
1702028662464807685,342,1702028662464484691,base_link,-0.14909285339524223,0.22943309465813183,-0.8640787613137575,-0.42249221340580934,0.0,0.0,0.0,0.0,0.0,0.0,0.0,0.0,0.0,-0.002580198459327221,-0.010557232424616814,-0.026703452691435814,0.0,0.0,0.0,0.0,0.0,0.0,0.0,0.0,0.0,4.411719833498258,-2.506006221741491,8.384310402609808,0.0,0.0,0.0,0.0,0.0,0.0,0.0,0.0,0.0
1702028662468219696,343,1702028662467937231,base_link,-0.14909285339524223,0.22943309465813183,-0.8640787613137575,-0.42249221340580934,0.0,0.0,0.0,0.0,0.0,0.0,0.0,0.0,0.0,0.0016812486574053764,-0.010556479915976524,-0.019246825948357582,0.0,0.0,0.0,0.0,0.0,0.0,0.0,0.0,0.0,4.471013128800594,-2.4379709125167395,8.372952850208522,0.0,0.0,0.0,0.0,0.0,0.0,0.0,0.0,0.0
1702028662471512405,344,1702028662471143245,base_link,-0.14911794927175828,0.22942248331233714,-0.8640446302819975,-0.42255891688216907,0.0,0.0,0.0,0.0,0.0,0.0,0.0,0.0,0.0,0.0016812486574053764,-0.010556479915976524,-0.019246825948357582,0.0,0.0,0.0,0.0,0.0,0.0,0.0,0.0,0.0,4.471013128800594,-2.4379709125167395,8.372952850208522,0.0,0.0,0.0,0.0,0.0,0.0,0.0,0.0,0.0
1702028662474821299,345,1702028662474572181,base_link,-0.14911794927175828,0.22942248331233714,-0.8640446302819975,-0.42255891688216907,0.0,0.0,0.0,0.0,0.0,0.0,0.0,0.0,0.0,-0.001514035277068615,-0.006294889375567436,-0.014985956251621246,0.0,0.0,0.0,0.0,0.0,0.0,0.0,0.0,0.0,4.468487440071224,-2.446088538819445,8.371933519694354,0.0,0.0,0.0,0.0,0.0,0.0,0.0,0.0,0.0
1702028662478149505,346,1702028662477805614,base_link,-0.149139302994638,0.22941476440490455,-0.8640239321421587,-0.422597892636627,0.0,0.0,0.0,0.0,0.0,0.0,0.0,0.0,0.0,-0.001514035277068615,-0.006294889375567436,-0.014985956251621246,0.0,0.0,0.0,0.0,0.0,0.0,0.0,0.0,0.0,4.468487440071224,-2.446088538819445,8.371933519694354,0.0,0.0,0.0,0.0,0.0,0.0,0.0,0.0,0.0
1702028662481508463,347,1702028662481232166,base_link,-0.149139302994638,0.22941476440490455,-0.8640239321421587,-0.422597892636627,0.0,0.0,0.0,0.0,0.0,0.0,0.0,0.0,0.0,-0.00790499523282051,0.0011621788144111633,-0.0032681673765182495,0.0,0.0,0.0,0.0,0.0,0.0,0.0,0.0,0.0,4.425548108295111,-2.392409969904849,8.410166376301094,0.0,0.0,0.0,0.0,0.0,0.0,0.0,0.0,0.0
1702028662484833462,348,1702028662484470844,base_link,-0.1491446253755705,0.22939980128935486,-0.8640034707738766,-0.42264596813489164,0.0,0.0,0.0,0.0,0.0,0.0,0.0,0.0,0.0,-0.00790499523282051,0.0011621788144111633,-0.0032681673765182495,0.0,0.0,0.0,0.0,0.0,0.0,0.0,0.0,0.0,4.425548108295111,-2.392409969904849,8.410166376301094,0.0,0.0,0.0,0.0,0.0,0.0,0.0,0.0,0.0
1702028662488172276,349,1702028662487908601,base_link,-0.1491446253755705,0.22939980128935486,-0.8640034707738766,-0.42264596813489164,0.0,0.0,0.0,0.0,0.0,0.0,0.0,0.0,0.0,-0.005773682147264481,-0.0009682625532150269,0.008449649438261986,0.0,0.0,0.0,0.0,0.0,0.0,0.0,0.0,0.0,4.4270771716012565,-2.3887362573352937,8.410405864735589,0.0,0.0,0.0,0.0,0.0,0.0,0.0,0.0,0.0
1702028662491392380,350,1702028662491137504,base_link,-0.1491638887246098,0.22938835001159708,-0.8639971936817832,-0.42265821710870916,0.0,0.0,0.0,0.0,0.0,0.0,0.0,0.0,0.0,-0.005773682147264481,-0.0009682625532150269,0.008449649438261986,0.0,0.0,0.0,0.0,0.0,0.0,0.0,0.0,0.0,4.4270771716012565,-2.3887362573352937,8.410405864735589,0.0,0.0,0.0,0.0,0.0,0.0,0.0,0.0,0.0
1702028662494812826,351,1702028662494560241,base_link,-0.1491638887246098,0.22938835001159708,-0.8639971936817832,-0.42265821710870916,0.0,0.0,0.0,0.0,0.0,0.0,0.0,0.0,0.0,-0.005772835575044155,0.0011622030287981033,0.013775917701423168,0.0,0.0,0.0,0.0,0.0,0.0,0.0,0.0,0.0,4.382783993100905,-2.4393579782642703,8.419069849080536,0.0,0.0,0.0,0.0,0.0,0.0,0.0,0.0,0.0
1702028662498079744,352,1702028662497805595,base_link,-0.14913908095208137,0.2293970882036222,-0.8640225164449564,-0.42261046074676534,0.0,0.0,0.0,0.0,0.0,0.0,0.0,0.0,0.0,-0.005772835575044155,0.0011622030287981033,0.013775917701423168,0.0,0.0,0.0,0.0,0.0,0.0,0.0,0.0,0.0,4.382783993100905,-2.4393579782642703,8.419069849080536,0.0,0.0,0.0,0.0,0.0,0.0,0.0,0.0,0.0
1702028662501507591,353,1702028662501234292,base_link,-0.14913908095208137,0.2293970882036222,-0.8640225164449564,-0.42261046074676534,0.0,0.0,0.0,0.0,0.0,0.0,0.0,0.0,0.0,-0.015359346754848957,0.005422936752438545,0.015906456857919693,0.0,0.0,0.0,0.0,0.0,0.0,0.0,0.0,0.0,4.367003772036732,-2.4571863656968786,8.422084849919903,0.0,0.0,0.0,0.0,0.0,0.0,0.0,0.0,0.0
1702028662504736986,354,1702028662504468202,base_link,-0.149087763822435,0.22941075410606004,-0.8640381311695978,-0.4225892242637804,0.0,0.0,0.0,0.0,0.0,0.0,0.0,0.0,0.0,-0.015359346754848957,0.005422936752438545,0.015906456857919693,0.0,0.0,0.0,0.0,0.0,0.0,0.0,0.0,0.0,4.367003772036732,-2.4571863656968786,8.422084849919903,0.0,0.0,0.0,0.0,0.0,0.0,0.0,0.0,0.0
1702028662508169092,355,1702028662507904052,base_link,-0.149087763822435,0.22941075410606004,-0.8640381311695978,-0.4225892242637804,0.0,0.0,0.0,0.0,0.0,0.0,0.0,0.0,0.0,-0.015358512289822102,0.013944573700428009,0.011645427905023098,0.0,0.0,0.0,0.0,0.0,0.0,0.0,0.0,0.0,4.31135268824933,-2.572499316050332,8.416322550047965,0.0,0.0,0.0,0.0,0.0,0.0,0.0,0.0,0.0
1702028662511396737,356,1702028662511135578,base_link,-0.14900893220973946,0.22941139202393784,-0.8640489949536158,-0.4225944694988314,0.0,0.0,0.0,0.0,0.0,0.0,0.0,0.0,0.0,-0.015358512289822102,0.013944573700428009,0.011645427905023098,0.0,0.0,0.0,0.0,0.0,0.0,0.0,0.0,0.0,4.31135268824933,-2.572499316050332,8.416322550047965,0.0,0.0,0.0,0.0,0.0,0.0,0.0,0.0,0.0
1702028662514803914,357,1702028662514562606,base_link,-0.14900893220973946,0.22941139202393784,-0.8640489949536158,-0.4225944694988314,0.0,0.0,0.0,0.0,0.0,0.0,0.0,0.0,0.0,-0.02068408578634262,0.015009373426437378,0.007384398952126503,0.0,0.0,0.0,0.0,0.0,0.0,0.0,0.0,0.0,4.274952022982694,-2.5748753363898556,8.434145019102257,0.0,0.0,0.0,0.0,0.0,0.0,0.0,0.0,0.0
1702028662518049762,358,1702028662517795324,base_link,-0.14892731051347577,0.22944106297335756,-0.8640559346349818,-0.4225929443648424,0.0,0.0,0.0,0.0,0.0,0.0,0.0,0.0,0.0,-0.02068408578634262,0.015009373426437378,0.007384398952126503,0.0,0.0,0.0,0.0,0.0,0.0,0.0,0.0,0.0,4.274952022982694,-2.5748753363898556,8.434145019102257,0.0,0.0,0.0,0.0,0.0,0.0,0.0,0.0,0.0
1702028662521526691,359,1702028662521225452,base_link,-0.14892731051347577,0.22944106297335756,-0.8640559346349818,-0.4225929443648424,0.0,0.0,0.0,0.0,0.0,0.0,0.0,0.0,0.0,-0.019618188962340355,0.016074322164058685,0.004188625141978264,0.0,0.0,0.0,0.0,0.0,0.0,0.0,0.0,0.0,4.260048609222406,-2.568216017834776,8.443710815322795,0.0,0.0,0.0,0.0,0.0,0.0,0.0,0.0,0.0
1702028662524754651,360,1702028662524474382,base_link,-0.14884017811030198,0.2294684081726942,-0.8640485760019083,-0.42262383905768713,0.0,0.0,0.0,0.0,0.0,0.0,0.0,0.0,0.0,-0.019618188962340355,0.016074322164058685,0.004188625141978264,0.0,0.0,0.0,0.0,0.0,0.0,0.0,0.0,0.0,4.260048609222406,-2.568216017834776,8.443710815322795,0.0,0.0,0.0,0.0,0.0,0.0,0.0,0.0,0.0
1702028662528211102,361,1702028662527910947,base_link,-0.14884017811030198,0.2294684081726942,-0.8640485760019083,-0.42262383905768713,0.0,0.0,0.0,0.0,0.0,0.0,0.0,0.0,0.0,-0.02920505590736866,0.006486801430583,0.0041886866092681885,0.0,0.0,0.0,0.0,0.0,0.0,0.0,0.0,0.0,4.302069094279208,-2.534299403219437,8.432646562194417,0.0,0.0,0.0,0.0,0.0,0.0,0.0,0.0,0.0
1702028662532203865,362,1702028662531403303,base_link,-0.14875715125571268,0.22951705832575814,-0.8640349125801623,-0.42265458678496187,0.0,0.0,0.0,0.0,0.0,0.0,0.0,0.0,0.0,-0.02920505590736866,0.006486801430583,0.0041886866092681885,0.0,0.0,0.0,0.0,0.0,0.0,0.0,0.0,0.0,4.302069094279208,-2.534299403219437,8.432646562194417,0.0,0.0,0.0,0.0,0.0,0.0,0.0,0.0,0.0
