%time,field.header.seq,field.header.stamp,field.header.frame_id,field.orientation.x,field.orientation.y,field.orientation.z,field.orientation.w,field.orientation_covariance0,field.orientation_covariance1,field.orientation_covariance2,field.orientation_covariance3,field.orientation_covariance4,field.orientation_covariance5,field.orientation_covariance6,field.orientation_covariance7,field.orientation_covariance8,field.angular_velocity.x,field.angular_velocity.y,field.angular_velocity.z,field.angular_velocity_covariance0,field.angular_velocity_covariance1,field.angular_velocity_covariance2,field.angular_velocity_covariance3,field.angular_velocity_covariance4,field.angular_velocity_covariance5,field.angular_velocity_covariance6,field.angular_velocity_covariance7,field.angular_velocity_covariance8,field.linear_acceleration.x,field.linear_acceleration.y,field.linear_acceleration.z,field.linear_acceleration_covariance0,field.linear_acceleration_covariance1,field.linear_acceleration_covariance2,field.linear_acceleration_covariance3,field.linear_acceleration_covariance4,field.linear_acceleration_covariance5,field.linear_acceleration_covariance6,field.linear_acceleration_covariance7,field.linear_acceleration_covariance8
1703250046198912594,13865,1702029030007363796,base_link,-0.5433968259711003,-0.3622597876910648,-0.3772163091305219,0.6566548498812027,0.0,0.0,0.0,0.0,0.0,0.0,0.0,0.0,0.0,-0.4071255326271057,-0.09926235675811768,-0.865169107913971,0.0,0.0,0.0,0.0,0.0,0.0,0.0,0.0,0.0,8.279422563839312,-4.916382177128964,1.8221822899471838,0.0,0.0,0.0,0.0,0.0,0.0,0.0,0.0,0.0
1703250046201824125,13866,1702029030010601043,base_link,-0.5432750218571392,-0.3637773505487024,-0.3795649321104779,0.6545599683496232,0.0,0.0,0.0,0.0,0.0,0.0,0.0,0.0,0.0,-0.4071255326271057,-0.09926235675811768,-0.865169107913971,0.0,0.0,0.0,0.0,0.0,0.0,0.0,0.0,0.0,8.279422563839312,-4.916382177128964,1.8221822899471838,0.0,0.0,0.0,0.0,0.0,0.0,0.0,0.0,0.0
1703250046204793768,13867,1702029030014043807,base_link,-0.5432750218571392,-0.3637773505487024,-0.3795649321104779,0.6545599683496232,0.0,0.0,0.0,0.0,0.0,0.0,0.0,0.0,0.0,-0.33257582783699036,-0.22280916571617126,-1.004720687866211,0.0,0.0,0.0,0.0,0.0,0.0,0.0,0.0,0.0,8.175278384808943,-4.874481052028592,2.333293338671742,0.0,0.0,0.0,0.0,0.0,0.0,0.0,0.0,0.0
1703250046208236477,13868,1702029030017267227,base_link,-0.5430651106674165,-0.3658109835981186,-0.3819053893546067,0.6522352976010036,0.0,0.0,0.0,0.0,0.0,0.0,0.0,0.0,0.0,-0.33257582783699036,-0.22280916571617126,-1.004720687866211,0.0,0.0,0.0,0.0,0.0,0.0,0.0,0.0,0.0,8.175278384808943,-4.874481052028592,2.333293338671742,0.0,0.0,0.0,0.0,0.0,0.0,0.0,0.0,0.0
1703250046211519589,13869,1702029030020696163,base_link,-0.5430651106674165,-0.3658109835981186,-0.3819053893546067,0.6522352976010036,0.0,0.0,0.0,0.0,0.0,0.0,0.0,0.0,0.0,-0.3336613178253174,-0.3452865481376648,-1.0558557510375977,0.0,0.0,0.0,0.0,0.0,0.0,0.0,0.0,0.0,8.479048512079531,-4.373985893256663,2.2391926525856607,0.0,0.0,0.0,0.0,0.0,0.0,0.0,0.0,0.0
1703250046214677677,13870,1702029030023942708,base_link,-0.542962599782857,-0.36815158052323926,-0.38420639951272617,0.649647190072234,0.0,0.0,0.0,0.0,0.0,0.0,0.0,0.0,0.0,-0.3336613178253174,-0.3452865481376648,-1.0558557510375977,0.0,0.0,0.0,0.0,0.0,0.0,0.0,0.0,0.0,8.479048512079531,-4.373985893256663,2.2391926525856607,0.0,0.0,0.0,0.0,0.0,0.0,0.0,0.0,0.0
1703250046218931578,13871,1702029030027395009,base_link,-0.542962599782857,-0.36815158052323926,-0.38420639951272617,0.649647190072234,0.0,0.0,0.0,0.0,0.0,0.0,0.0,0.0,0.0,-0.3581843078136444,-0.4262153208255768,-1.1251002550125122,0.0,0.0,0.0,0.0,0.0,0.0,0.0,0.0,0.0,8.620250203527986,-4.201951698324697,2.018635270057956,0.0,0.0,0.0,0.0,0.0,0.0,0.0,0.0,0.0
1703250046221737292,13872,1702029030030621290,base_link,-0.5428895374912793,-0.37080404963501834,-0.3864427078309737,0.6468673282992738,0.0,0.0,0.0,0.0,0.0,0.0,0.0,0.0,0.0,-0.3581843078136444,-0.4262153208255768,-1.1251002550125122,0.0,0.0,0.0,0.0,0.0,0.0,0.0,0.0,0.0,8.620250203527986,-4.201951698324697,2.018635270057956,0.0,0.0,0.0,0.0,0.0,0.0,0.0,0.0,0.0
1703250046225026690,13873,1702029030034041881,base_link,-0.5428895374912793,-0.37080404963501834,-0.3864427078309737,0.6468673282992738,0.0,0.0,0.0,0.0,0.0,0.0,0.0,0.0,0.0,-0.2942909300327301,-0.5572075247764587,-1.190084457397461,0.0,0.0,0.0,0.0,0.0,0.0,0.0,0.0,0.0,8.375343615650738,-4.281952197253447,2.7492734858894687,0.0,0.0,0.0,0.0,0.0,0.0,0.0,0.0,0.0
1703250046228056470,13874,1702029030037271022,base_link,-0.5427765754308613,-0.3739680185910867,-0.38848882108104404,0.6439083367449623,0.0,0.0,0.0,0.0,0.0,0.0,0.0,0.0,0.0,-0.2942909300327301,-0.5572075247764587,-1.190084457397461,0.0,0.0,0.0,0.0,0.0,0.0,0.0,0.0,0.0,8.375343615650738,-4.281952197253447,2.7492734858894687,0.0,0.0,0.0,0.0,0.0,0.0,0.0,0.0,0.0
1703250046235617930,13875,1702029030044023275,base_link,-0.5427765754308613,-0.3739680185910867,-0.38848882108104404,0.6439083367449623,0.0,0.0,0.0,0.0,0.0,0.0,0.0,0.0,0.0,-0.26555192470550537,-0.7020436525344849,-1.1858268976211548,0.0,0.0,0.0,0.0,0.0,0.0,0.0,0.0,0.0,8.600891513631549,-4.134833346649146,2.228860328997548,0.0,0.0,0.0,0.0,0.0,0.0,0.0,0.0,0.0
1703250046235658161,13876,1702029030044258832,base_link,-0.5428276531337825,-0.37740197859454655,-0.3901747377329426,0.6408350486523195,0.0,0.0,0.0,0.0,0.0,0.0,0.0,0.0,0.0,-0.26555192470550537,-0.7020436525344849,-1.1858268976211548,0.0,0.0,0.0,0.0,0.0,0.0,0.0,0.0,0.0,8.600891513631549,-4.134833346649146,2.228860328997548,0.0,0.0,0.0,0.0,0.0,0.0,0.0,0.0,0.0
1703250046242017780,13877,1702029030050682544,base_link,-0.5428276531337825,-0.37740197859454655,-0.3901747377329426,0.6408350486523195,0.0,0.0,0.0,0.0,0.0,0.0,0.0,0.0,0.0,-0.31351223587989807,-0.873508095741272,-1.1666556596755981,0.0,0.0,0.0,0.0,0.0,0.0,0.0,0.0,0.0,8.243730090865292,-4.257056779537509,3.1556903784680594,0.0,0.0,0.0,0.0,0.0,0.0,0.0,0.0,0.0
1703250046245393857,13878,1702029030053947925,base_link,-0.5432487656681133,-0.3812973855133414,-0.3915859035225418,0.6373017829593732,0.0,0.0,0.0,0.0,0.0,0.0,0.0,0.0,0.0,-0.31351223587989807,-0.873508095741272,-1.1666556596755981,0.0,0.0,0.0,0.0,0.0,0.0,0.0,0.0,0.0,8.243730090865292,-4.257056779537509,3.1556903784680594,0.0,0.0,0.0,0.0,0.0,0.0,0.0,0.0,0.0
1703250046248190561,13879,1702029030057373762,base_link,-0.5432487656681133,-0.3812973855133414,-0.3915859035225418,0.6373017829593732,0.0,0.0,0.0,0.0,0.0,0.0,0.0,0.0,0.0,-0.2901027202606201,-1.1600120067596436,-1.2902302742004395,0.0,0.0,0.0,0.0,0.0,0.0,0.0,0.0,0.0,8.10663239769252,-4.597411603903438,3.03089388019047,0.0,0.0,0.0,0.0,0.0,0.0,0.0,0.0,0.0
1703250046251727004,13880,1702029030060606002,base_link,-0.5437144081809482,-0.38603279536966545,-0.39267757040440576,0.6333700726564336,0.0,0.0,0.0,0.0,0.0,0.0,0.0,0.0,0.0,-0.2901027202606201,-1.1600120067596436,-1.2902302742004395,0.0,0.0,0.0,0.0,0.0,0.0,0.0,0.0,0.0,8.10663239769252,-4.597411603903438,3.03089388019047,0.0,0.0,0.0,0.0,0.0,0.0,0.0,0.0,0.0
1703250046255242703,13881,1702029030064047336,base_link,-0.5437144081809482,-0.38603279536966545,-0.39267757040440576,0.6333700726564336,0.0,0.0,0.0,0.0,0.0,0.0,0.0,0.0,0.0,-0.15910159051418304,-1.2526326179504395,-1.3062143325805664,0.0,0.0,0.0,0.0,0.0,0.0,0.0,0.0,0.0,8.504634849503892,-4.225172719684536,2.4205581103203264,0.0,0.0,0.0,0.0,0.0,0.0,0.0,0.0,0.0
1703250046258573939,13882,1702029030067270517,base_link,-0.543890876141085,-0.3909578498406222,-0.39343405797588704,0.6297176482544434,0.0,0.0,0.0,0.0,0.0,0.0,0.0,0.0,0.0,-0.15910159051418304,-1.2526326179504395,-1.3062143325805664,0.0,0.0,0.0,0.0,0.0,0.0,0.0,0.0,0.0,8.504634849503892,-4.225172719684536,2.4205581103203264,0.0,0.0,0.0,0.0,0.0,0.0,0.0,0.0,0.0
1703250046261801872,13883,1702029030070699691,base_link,-0.543890876141085,-0.3909578498406222,-0.39343405797588704,0.6297176482544434,0.0,0.0,0.0,0.0,0.0,0.0,0.0,0.0,0.0,-0.05792345851659775,-0.7497797012329102,-1.1656049489974976,0.0,0.0,0.0,0.0,0.0,0.0,0.0,0.0,0.0,9.190816033092572,-3.3068150657495634,-0.7961625253553646,0.0,0.0,0.0,0.0,0.0,0.0,0.0,0.0,0.0
1703250046264891790,13884,1702029030073944091,base_link,-0.5432368133455339,-0.3948072219940745,-0.3946192081132982,0.6271337199318376,0.0,0.0,0.0,0.0,0.0,0.0,0.0,0.0,0.0,-0.05792345851659775,-0.7497797012329102,-1.1656049489974976,0.0,0.0,0.0,0.0,0.0,0.0,0.0,0.0,0.0,9.190816033092572,-3.3068150657495634,-0.7961625253553646,0.0,0.0,0.0,0.0,0.0,0.0,0.0,0.0,0.0
1703250046268070133,13885,1702029030077365159,base_link,-0.5432368133455339,-0.3948072219940745,-0.3946192081132982,0.6271337199318376,0.0,0.0,0.0,0.0,0.0,0.0,0.0,0.0,0.0,0.17428651452064514,-0.6709097623825073,-1.1677420139312744,0.0,0.0,0.0,0.0,0.0,0.0,0.0,0.0,0.0,9.003288799749258,-3.767752486681409,0.8859074372730045,0.0,0.0,0.0,0.0,0.0,0.0,0.0,0.0,0.0
1703250046271661265,13886,1702029030080600500,base_link,-0.5419860497339248,-0.398576430805676,-0.3958207494298882,0.6250711039720084,0.0,0.0,0.0,0.0,0.0,0.0,0.0,0.0,0.0,0.17428651452064514,-0.6709097623825073,-1.1677420139312744,0.0,0.0,0.0,0.0,0.0,0.0,0.0,0.0,0.0,9.003288799749258,-3.767752486681409,0.8859074372730045,0.0,0.0,0.0,0.0,0.0,0.0,0.0,0.0,0.0
1703250046275334327,13887,1702029030084037065,base_link,-0.5419860497339248,-0.398576430805676,-0.3958207494298882,0.6250711039720084,0.0,0.0,0.0,0.0,0.0,0.0,0.0,0.0,0.0,0.23605594038963318,-0.46953970193862915,-1.2060986757278442,0.0,0.0,0.0,0.0,0.0,0.0,0.0,0.0,0.0,9.114690407200358,-3.5272099357123525,0.7219479553969549,0.0,0.0,0.0,0.0,0.0,0.0,0.0,0.0,0.0
1703250046278238594,13888,1702029030087266445,base_link,-0.5403645874208546,-0.4020560848074766,-0.3973841289129672,0.6232518523188318,0.0,0.0,0.0,0.0,0.0,0.0,0.0,0.0,0.0,0.23605594038963318,-0.46953970193862915,-1.2060986757278442,0.0,0.0,0.0,0.0,0.0,0.0,0.0,0.0,0.0,9.114690407200358,-3.5272099357123525,0.7219479553969549,0.0,0.0,0.0,0.0,0.0,0.0,0.0,0.0,0.0
1703250046281826723,13889,1702029030090700626,base_link,-0.5403645874208546,-0.4020560848074766,-0.3973841289129672,0.6232518523188318,0.0,0.0,0.0,0.0,0.0,0.0,0.0,0.0,0.0,0.24669313430786133,-0.32889336347579956,-1.2146278619766235,0.0,0.0,0.0,0.0,0.0,0.0,0.0,0.0,0.0,9.212287238730323,-3.264685001849606,0.7180499076141484,0.0,0.0,0.0,0.0,0.0,0.0,0.0,0.0,0.0
1703250046284651436,13890,1702029030093945264,base_link,-0.5385588694597824,-0.40529499697927546,-0.39916885011129083,0.6215742422676475,0.0,0.0,0.0,0.0,0.0,0.0,0.0,0.0,0.0,0.24669313430786133,-0.32889336347579956,-1.2146278619766235,0.0,0.0,0.0,0.0,0.0,0.0,0.0,0.0,0.0,9.212287238730323,-3.264685001849606,0.7180499076141484,0.0,0.0,0.0,0.0,0.0,0.0,0.0,0.0,0.0
1703250046288127742,13891,1702029030097355604,base_link,-0.5385588694597824,-0.40529499697927546,-0.39916885011129083,0.6215742422676475,0.0,0.0,0.0,0.0,0.0,0.0,0.0,0.0,0.0,0.21578523516654968,-0.28305765986442566,-1.1922640800476074,0.0,0.0,0.0,0.0,0.0,0.0,0.0,0.0,0.0,9.273030665660551,-3.169274328130943,0.08125581067961245,0.0,0.0,0.0,0.0,0.0,0.0,0.0,0.0,0.0
1703250046291478953,13892,1702029030100605964,base_link,-0.5367738295123042,-0.408333162549666,-0.4009553803550141,0.6199779570898064,0.0,0.0,0.0,0.0,0.0,0.0,0.0,0.0,0.0,0.21578523516654968,-0.28305765986442566,-1.1922640800476074,0.0,0.0,0.0,0.0,0.0,0.0,0.0,0.0,0.0,9.273030665660551,-3.169274328130943,0.08125581067961245,0.0,0.0,0.0,0.0,0.0,0.0,0.0,0.0,0.0
1703250046295199650,13893,1702029030104044437,base_link,-0.5367738295123042,-0.408333162549666,-0.4009553803550141,0.6199779570898064,0.0,0.0,0.0,0.0,0.0,0.0,0.0,0.0,0.0,0.21151021122932434,-0.19141849875450134,-1.113440990447998,0.0,0.0,0.0,0.0,0.0,0.0,0.0,0.0,0.0,9.329155565352435,-3.0005487446594215,0.05969646871042905,0.0,0.0,0.0,0.0,0.0,0.0,0.0,0.0,0.0
1703250046298004387,13894,1702029030107267618,base_link,-0.5350514849231448,-0.41090195398108065,-0.4029495258019123,0.6184748760880119,0.0,0.0,0.0,0.0,0.0,0.0,0.0,0.0,0.0,0.21151021122932434,-0.19141849875450134,-1.113440990447998,0.0,0.0,0.0,0.0,0.0,0.0,0.0,0.0,0.0,9.329155565352435,-3.0005487446594215,0.05969646871042905,0.0,0.0,0.0,0.0,0.0,0.0,0.0,0.0,0.0
1703250046301706994,13895,1702029030110691785,base_link,-0.5350514849231448,-0.41090195398108065,-0.4029495258019123,0.6184748760880119,0.0,0.0,0.0,0.0,0.0,0.0,0.0,0.0,0.0,0.08153297007083893,-0.0838039293885231,-1.134751558303833,0.0,0.0,0.0,0.0,0.0,0.0,0.0,0.0,0.0,9.249025869720505,-3.158827479521086,0.7192561545536916,0.0,0.0,0.0,0.0,0.0,0.0,0.0,0.0,0.0
1703250046304728602,13896,1702029030113944053,base_link,-0.5333178371955535,-0.413276064145669,-0.40513247991487145,0.6169624405515689,0.0,0.0,0.0,0.0,0.0,0.0,0.0,0.0,0.0,0.08153297007083893,-0.0838039293885231,-1.134751558303833,0.0,0.0,0.0,0.0,0.0,0.0,0.0,0.0,0.0,9.249025869720505,-3.158827479521086,0.7192561545536916,0.0,0.0,0.0,0.0,0.0,0.0,0.0,0.0,0.0
1703250046311612485,13897,1702029030120678424,base_link,-0.5333178371955535,-0.413276064145669,-0.40513247991487145,0.6169624405515689,0.0,0.0,0.0,0.0,0.0,0.0,0.0,0.0,0.0,0.1518257111310959,-0.11467324197292328,-1.1933469772338867,0.0,0.0,0.0,0.0,0.0,0.0,0.0,0.0,0.0,9.159508862331233,-3.4762948155691817,0.24242886817054882,0.0,0.0,0.0,0.0,0.0,0.0,0.0,0.0,0.0
1703250046315243151,13898,1702029030123937606,base_link,-0.5316278124992383,-0.41591969927295624,-0.4074037473627874,0.6151462097491348,0.0,0.0,0.0,0.0,0.0,0.0,0.0,0.0,0.0,0.1518257111310959,-0.11467324197292328,-1.1933469772338867,0.0,0.0,0.0,0.0,0.0,0.0,0.0,0.0,0.0,9.159508862331233,-3.4762948155691817,0.24242886817054882,0.0,0.0,0.0,0.0,0.0,0.0,0.0,0.0,0.0
1703250046318837217,13899,1702029030127498865,base_link,-0.5316278124992383,-0.41591969927295624,-0.4074037473627874,0.6151462097491348,0.0,0.0,0.0,0.0,0.0,0.0,0.0,0.0,0.0,0.009062567725777626,-0.15619176626205444,-1.2317016124725342,0.0,0.0,0.0,0.0,0.0,0.0,0.0,0.0,0.0,9.553030465581974,-2.127638265753089,0.5027567341825168,0.0,0.0,0.0,0.0,0.0,0.0,0.0,0.0,0.0
1703250046321507011,13900,1702029030130648612,base_link,-0.5301247352107876,-0.4185305990552669,-0.40979461663952693,0.6130809693224825,0.0,0.0,0.0,0.0,0.0,0.0,0.0,0.0,0.0,0.009062567725777626,-0.15619176626205444,-1.2317016124725342,0.0,0.0,0.0,0.0,0.0,0.0,0.0,0.0,0.0,9.553030465581974,-2.127638265753089,0.5027567341825168,0.0,0.0,0.0,0.0,0.0,0.0,0.0,0.0,0.0
1703250046325023967,13901,1702029030134048223,base_link,-0.5301247352107876,-0.4185305990552669,-0.40979461663952693,0.6130809693224825,0.0,0.0,0.0,0.0,0.0,0.0,0.0,0.0,0.0,-0.1337020844221115,-0.23286256194114685,-1.2604683637619019,0.0,0.0,0.0,0.0,0.0,0.0,0.0,0.0,0.0,9.35557045367202,-2.373816213388935,1.6965547652318684,0.0,0.0,0.0,0.0,0.0,0.0,0.0,0.0,0.0
1703250046328067437,13902,1702029030137275934,base_link,-0.5287069251752673,-0.4211432455470051,-0.4123061615698269,0.6108281125925731,0.0,0.0,0.0,0.0,0.0,0.0,0.0,0.0,0.0,-0.1337020844221115,-0.23286256194114685,-1.2604683637619019,0.0,0.0,0.0,0.0,0.0,0.0,0.0,0.0,0.0,9.35557045367202,-2.373816213388935,1.6965547652318684,0.0,0.0,0.0,0.0,0.0,0.0,0.0,0.0,0.0
1703250046331686089,13903,1702029030140712738,base_link,-0.5287069251752673,-0.4211432455470051,-0.4123061615698269,0.6108281125925731,0.0,0.0,0.0,0.0,0.0,0.0,0.0,0.0,0.0,0.05802757665514946,-0.09328662604093552,-1.2860400676727295,0.0,0.0,0.0,0.0,0.0,0.0,0.0,0.0,0.0,9.273743179304972,-2.5616789484289315,1.8642661852510714,0.0,0.0,0.0,0.0,0.0,0.0,0.0,0.0,0.0
1703250046335323180,13904,1702029030143945217,base_link,-0.5269901281616144,-0.4238809016403186,-0.41463388322874367,0.6088391650702575,0.0,0.0,0.0,0.0,0.0,0.0,0.0,0.0,0.0,0.05802757665514946,-0.09328662604093552,-1.2860400676727295,0.0,0.0,0.0,0.0,0.0,0.0,0.0,0.0,0.0,9.273743179304972,-2.5616789484289315,1.8642661852510714,0.0,0.0,0.0,0.0,0.0,0.0,0.0,0.0,0.0
1703250046338823094,13905,1702029030147369384,base_link,-0.5269901281616144,-0.4238809016403186,-0.41463388322874367,0.6088391650702575,0.0,0.0,0.0,0.0,0.0,0.0,0.0,0.0,0.0,0.08357717096805573,-0.2679615020751953,-1.1582139730453491,0.0,0.0,0.0,0.0,0.0,0.0,0.0,0.0,0.0,9.505280575589216,-1.88724272884101,1.4587515421630475,0.0,0.0,0.0,0.0,0.0,0.0,0.0,0.0,0.0
1703250046341840581,13906,1702029030150602340,base_link,-0.5252433940954799,-0.4264945153416157,-0.416598373783883,0.6071800394472835,0.0,0.0,0.0,0.0,0.0,0.0,0.0,0.0,0.0,0.08357717096805573,-0.2679615020751953,-1.1582139730453491,0.0,0.0,0.0,0.0,0.0,0.0,0.0,0.0,0.0,9.505280575589216,-1.88724272884101,1.4587515421630475,0.0,0.0,0.0,0.0,0.0,0.0,0.0,0.0,0.0
1703250046345045535,13907,1702029030154026985,base_link,-0.5252433940954799,-0.4264945153416157,-0.416598373783883,0.6071800394472835,0.0,0.0,0.0,0.0,0.0,0.0,0.0,0.0,0.0,0.18582938611507416,-0.053821757435798645,-1.086847186088562,0.0,0.0,0.0,0.0,0.0,0.0,0.0,0.0,0.0,9.305383052462648,-3.010942777481132,0.6197336828631639,0.0,0.0,0.0,0.0,0.0,0.0,0.0,0.0,0.0
1703250046348104930,13908,1702029030157273530,base_link,-0.5234081430280999,-0.42885129469884714,-0.41844629316816795,0.6058326357838595,0.0,0.0,0.0,0.0,0.0,0.0,0.0,0.0,0.0,0.18582938611507416,-0.053821757435798645,-1.086847186088562,0.0,0.0,0.0,0.0,0.0,0.0,0.0,0.0,0.0,9.305383052462648,-3.010942777481132,0.6197336828631639,0.0,0.0,0.0,0.0,0.0,0.0,0.0,0.0,0.0
1703250046351933609,13909,1702029030160702228,base_link,-0.5234081430280999,-0.42885129469884714,-0.41844629316816795,0.6058326357838595,0.0,0.0,0.0,0.0,0.0,0.0,0.0,0.0,0.0,0.2902142107486725,-0.10386832058429718,-0.9419772028923035,0.0,0.0,0.0,0.0,0.0,0.0,0.0,0.0,0.0,9.486512468157947,-2.170650373306894,1.1551442110604395,0.0,0.0,0.0,0.0,0.0,0.0,0.0,0.0,0.0
1703250046355000338,13910,1702029030163935661,base_link,-0.5215226526390089,-0.43116527037458596,-0.41965724658207554,0.6049780391041752,0.0,0.0,0.0,0.0,0.0,0.0,0.0,0.0,0.0,0.2902142107486725,-0.10386832058429718,-0.9419772028923035,0.0,0.0,0.0,0.0,0.0,0.0,0.0,0.0,0.0,9.486512468157947,-2.170650373306894,1.1551442110604395,0.0,0.0,0.0,0.0,0.0,0.0,0.0,0.0,0.0
1703250046358735354,13911,1702029030167356252,base_link,-0.5215226526390089,-0.43116527037458596,-0.41965724658207554,0.6049780391041752,0.0,0.0,0.0,0.0,0.0,0.0,0.0,0.0,0.0,0.4159099757671356,-0.10491713881492615,-0.6170778274536133,0.0,0.0,0.0,0.0,0.0,0.0,0.0,0.0,0.0,9.406801845809898,-2.7246615392312066,0.358187842202556,0.0,0.0,0.0,0.0,0.0,0.0,0.0,0.0,0.0
1703250046361729792,13912,1702029030170595169,base_link,-0.5201038881363331,-0.4325628070700137,-0.41992635646512155,0.6050150565325679,0.0,0.0,0.0,0.0,0.0,0.0,0.0,0.0,0.0,0.4159099757671356,-0.10491713881492615,-0.6170778274536133,0.0,0.0,0.0,0.0,0.0,0.0,0.0,0.0,0.0,9.406801845809898,-2.7246615392312066,0.358187842202556,0.0,0.0,0.0,0.0,0.0,0.0,0.0,0.0,0.0
1703250046365029457,13913,1702029030174028635,base_link,-0.5201038881363331,-0.4325628070700137,-0.41992635646512155,0.6050150565325679,0.0,0.0,0.0,0.0,0.0,0.0,0.0,0.0,0.0,0.49794095754623413,0.10067855566740036,0.1999761015176773,0.0,0.0,0.0,0.0,0.0,0.0,0.0,0.0,0.0,9.649334618795992,-1.7003324232924273,-0.19801783961481326,0.0,0.0,0.0,0.0,0.0,0.0,0.0,0.0,0.0
1703250046368063358,13914,1702029030177269220,base_link,-0.5194282122404413,-0.4323877379099439,-0.4184538960805706,0.6067384224596393,0.0,0.0,0.0,0.0,0.0,0.0,0.0,0.0,0.0,0.49794095754623413,0.10067855566740036,0.1999761015176773,0.0,0.0,0.0,0.0,0.0,0.0,0.0,0.0,0.0,9.649334618795992,-1.7003324232924273,-0.19801783961481326,0.0,0.0,0.0,0.0,0.0,0.0,0.0,0.0,0.0
1703250046371855019,13915,1702029030180701971,base_link,-0.5194282122404413,-0.4323877379099439,-0.4184538960805706,0.6067384224596393,0.0,0.0,0.0,0.0,0.0,0.0,0.0,0.0,0.0,0.19328612089157104,0.23915314674377441,0.12327505648136139,0.0,0.0,0.0,0.0,0.0,0.0,0.0,0.0,0.0,9.415328413004808,-2.645816663850316,-0.6254958485524684,0.0,0.0,0.0,0.0,0.0,0.0,0.0,0.0,0.0
1703250046375455860,13916,1702029030183943510,base_link,-0.5189587590778137,-0.4320446830965478,-0.4179703189540682,0.6077170481876031,0.0,0.0,0.0,0.0,0.0,0.0,0.0,0.0,0.0,0.19328612089157104,0.23915314674377441,0.12327505648136139,0.0,0.0,0.0,0.0,0.0,0.0,0.0,0.0,0.0,9.415328413004808,-2.645816663850316,-0.6254958485524684,0.0,0.0,0.0,0.0,0.0,0.0,0.0,0.0,0.0
1703250046378542565,13917,1702029030187365770,base_link,-0.5189587590778137,-0.4320446830965478,-0.4179703189540682,0.6077170481876031,0.0,0.0,0.0,0.0,0.0,0.0,0.0,0.0,0.0,0.33923590183258057,0.049530431628227234,0.3086290955543518,0.0,0.0,0.0,0.0,0.0,0.0,0.0,0.0,0.0,9.701171207213923,1.3528179472239925,0.3117062880216616,0.0,0.0,0.0,0.0,0.0,0.0,0.0,0.0,0.0
1703250046381861926,13918,1702029030190594196,base_link,-0.5186740494069173,-0.43168864314345623,-0.416966463669299,0.6089015634960313,0.0,0.0,0.0,0.0,0.0,0.0,0.0,0.0,0.0,0.33923590183258057,0.049530431628227234,0.3086290955543518,0.0,0.0,0.0,0.0,0.0,0.0,0.0,0.0,0.0,9.701171207213923,1.3528179472239925,0.3117062880216616,0.0,0.0,0.0,0.0,0.0,0.0,0.0,0.0,0.0
1703250046388203735,13919,1702029030197358131,base_link,-0.5186740494069173,-0.43168864314345623,-0.416966463669299,0.6089015634960313,0.0,0.0,0.0,0.0,0.0,0.0,0.0,0.0,0.0,0.19649791717529297,0.1326141059398651,0.16481706500053406,0.0,0.0,0.0,0.0,0.0,0.0,0.0,0.0,0.0,8.991483800667673,-3.8915743095333464,-0.22106210826570977,0.0,0.0,0.0,0.0,0.0,0.0,0.0,0.0,0.0
1703250046391366083,13920,1702029030200599908,base_link,-0.5184582940070975,-0.43144249119793815,-0.41648844332538326,0.6095865408131697,0.0,0.0,0.0,0.0,0.0,0.0,0.0,0.0,0.0,0.19649791717529297,0.1326141059398651,0.16481706500053406,0.0,0.0,0.0,0.0,0.0,0.0,0.0,0.0,0.0,8.991483800667673,-3.8915743095333464,-0.22106210826570977,0.0,0.0,0.0,0.0,0.0,0.0,0.0,0.0,0.0
1703250046395268310,13921,1702029030204035758,base_link,-0.5184582940070975,-0.43144249119793815,-0.41648844332538326,0.6095865408131697,0.0,0.0,0.0,0.0,0.0,0.0,0.0,0.0,0.0,-0.07727184146642685,0.15924179553985596,0.09770509600639343,0.0,0.0,0.0,0.0,0.0,0.0,0.0,0.0,0.0,9.328275003015916,-2.9982915502596876,-0.18312085558396154,0.0,0.0,0.0,0.0,0.0,0.0,0.0,0.0,0.0
1703250046398804473,13922,1702029030207259178,base_link,-0.5181807164376128,-0.4312331155533309,-0.4169837694769082,0.6096320867172255,0.0,0.0,0.0,0.0,0.0,0.0,0.0,0.0,0.0,-0.07727184146642685,0.15924179553985596,0.09770509600639343,0.0,0.0,0.0,0.0,0.0,0.0,0.0,0.0,0.0,9.328275003015916,-2.9982915502596876,-0.18312085558396154,0.0,0.0,0.0,0.0,0.0,0.0,0.0,0.0,0.0
1703250046401961723,13923,1702029030210688829,base_link,-0.5181807164376128,-0.4312331155533309,-0.4169837694769082,0.6096320867172255,0.0,0.0,0.0,0.0,0.0,0.0,0.0,0.0,0.0,-0.09006080031394958,0.1581813246011734,-0.6426554322242737,0.0,0.0,0.0,0.0,0.0,0.0,0.0,0.0,0.0,9.459459545813676,-2.4198820302448296,0.8383293271815723,0.0,0.0,0.0,0.0,0.0,0.0,0.0,0.0,0.0
1703250046404948198,13924,1702029030213928222,base_link,-0.517147915198013,-0.43191897739114116,-0.418794288061495,0.6087818780670177,0.0,0.0,0.0,0.0,0.0,0.0,0.0,0.0,0.0,-0.09006080031394958,0.1581813246011734,-0.6426554322242737,0.0,0.0,0.0,0.0,0.0,0.0,0.0,0.0,0.0,9.459459545813676,-2.4198820302448296,0.8383293271815723,0.0,0.0,0.0,0.0,0.0,0.0,0.0,0.0,0.0
1703250046408190310,13925,1702029030217361688,base_link,-0.517147915198013,-0.43191897739114116,-0.418794288061495,0.6087818780670177,0.0,0.0,0.0,0.0,0.0,0.0,0.0,0.0,0.0,-0.16144241392612457,0.19334177672863007,-0.5915245413780212,0.0,0.0,0.0,0.0,0.0,0.0,0.0,0.0,0.0,9.619147761553617,-1.8572015720451767,-0.2505966124890499,0.0,0.0,0.0,0.0,0.0,0.0,0.0,0.0,0.0
1703250046411572324,13926,1702029030220592498,base_link,-0.5163709790574132,-0.43221438431111964,-0.4206387793812258,0.6079595013341932,0.0,0.0,0.0,0.0,0.0,0.0,0.0,0.0,0.0,-0.16144241392612457,0.19334177672863007,-0.5915245413780212,0.0,0.0,0.0,0.0,0.0,0.0,0.0,0.0,0.0,9.619147761553617,-1.8572015720451767,-0.2505966124890499,0.0,0.0,0.0,0.0,0.0,0.0,0.0,0.0,0.0
1703250046415544676,13927,1702029030224058389,base_link,-0.5163709790574132,-0.43221438431111964,-0.4206387793812258,0.6079595013341932,0.0,0.0,0.0,0.0,0.0,0.0,0.0,0.0,0.0,-0.1827557384967804,0.21145518124103546,-0.49991264939308167,0.0,0.0,0.0,0.0,0.0,0.0,0.0,0.0,0.0,9.396859584542138,-2.4411049485496963,1.334180114738922,0.0,0.0,0.0,0.0,0.0,0.0,0.0,0.0,0.0
1703250046418602674,13928,1702029030227274417,base_link,-0.5156933424061219,-0.4322503789020558,-0.4224676631885263,0.6072405290303485,0.0,0.0,0.0,0.0,0.0,0.0,0.0,0.0,0.0,-0.1827557384967804,0.21145518124103546,-0.49991264939308167,0.0,0.0,0.0,0.0,0.0,0.0,0.0,0.0,0.0,9.396859584542138,-2.4411049485496963,1.334180114738922,0.0,0.0,0.0,0.0,0.0,0.0,0.0,0.0,0.0
1703250046421895355,13929,1702029030230703353,base_link,-0.5156933424061219,-0.4322503789020558,-0.4224676631885263,0.6072405290303485,0.0,0.0,0.0,0.0,0.0,0.0,0.0,0.0,0.0,-0.15293562412261963,0.2796335518360138,-0.4679553508758545,0.0,0.0,0.0,0.0,0.0,0.0,0.0,0.0,0.0,9.471982450163306,-2.128622923501736,1.3381004870118192,0.0,0.0,0.0,0.0,0.0,0.0,0.0,0.0,0.0
1703250046424982199,13930,1702029030233931541,base_link,-0.5148949679858824,-0.4322463614915225,-0.4241531250515901,0.606745730458095,0.0,0.0,0.0,0.0,0.0,0.0,0.0,0.0,0.0,-0.15293562412261963,0.2796335518360138,-0.4679553508758545,0.0,0.0,0.0,0.0,0.0,0.0,0.0,0.0,0.0,9.471982450163306,-2.128622923501736,1.3381004870118192,0.0,0.0,0.0,0.0,0.0,0.0,0.0,0.0,0.0
1703250046428151811,13931,1702029030237371444,base_link,-0.5148949679858824,-0.4322463614915225,-0.4241531250515901,0.606745730458095,0.0,0.0,0.0,0.0,0.0,0.0,0.0,0.0,0.0,-0.11885219812393188,0.3712451159954071,-0.3443855047225952,0.0,0.0,0.0,0.0,0.0,0.0,0.0,0.0,0.0,9.323555017784777,-2.0904289904811058,2.1774821390993013,0.0,0.0,0.0,0.0,0.0,0.0,0.0,0.0,0.0
1703250046431698732,13932,1702029030240583896,base_link,-0.5141333101113055,-0.4318203050800401,-0.4256583942570374,0.6066408286235719,0.0,0.0,0.0,0.0,0.0,0.0,0.0,0.0,0.0,-0.11885219812393188,0.3712451159954071,-0.3443855047225952,0.0,0.0,0.0,0.0,0.0,0.0,0.0,0.0,0.0,9.323555017784777,-2.0904289904811058,2.1774821390993013,0.0,0.0,0.0,0.0,0.0,0.0,0.0,0.0,0.0
1703250046435056090,13933,1702029030244025230,base_link,-0.5141333101113055,-0.4318203050800401,-0.4256583942570374,0.6066408286235719,0.0,0.0,0.0,0.0,0.0,0.0,0.0,0.0,0.0,-0.06132977828383446,0.41278451681137085,-0.1568993479013443,0.0,0.0,0.0,0.0,0.0,0.0,0.0,0.0,0.0,9.201431966916203,-2.4619049471936214,2.3049238141848,0.0,0.0,0.0,0.0,0.0,0.0,0.0,0.0,0.0
1703250046438335430,13934,1702029030247259378,base_link,-0.5134729132910655,-0.4311707850792868,-0.4265845400741992,0.6070114921318882,0.0,0.0,0.0,0.0,0.0,0.0,0.0,0.0,0.0,-0.06132977828383446,0.41278451681137085,-0.1568993479013443,0.0,0.0,0.0,0.0,0.0,0.0,0.0,0.0,0.0,9.201431966916203,-2.4619049471936214,2.3049238141848,0.0,0.0,0.0,0.0,0.0,0.0,0.0,0.0,0.0
1703250046442512081,13935,1702029030250699043,base_link,-0.5134729132910655,-0.4311707850792868,-0.4265845400741992,0.6070114921318882,0.0,0.0,0.0,0.0,0.0,0.0,0.0,0.0,0.0,0.05904716998338699,0.24233561754226685,0.03378230333328247,0.0,0.0,0.0,0.0,0.0,0.0,0.0,0.0,0.0,8.936780422199481,-2.3431494041075935,3.2685786751158794,0.0,0.0,0.0,0.0,0.0,0.0,0.0,0.0,0.0
1703250046444990008,13936,1702029030253931522,base_link,-0.513035163845594,-0.4308317034303435,-0.4267563095619422,0.6075014536824621,0.0,0.0,0.0,0.0,0.0,0.0,0.0,0.0,0.0,0.05904716998338699,0.24233561754226685,0.03378230333328247,0.0,0.0,0.0,0.0,0.0,0.0,0.0,0.0,0.0,8.936780422199481,-2.3431494041075935,3.2685786751158794,0.0,0.0,0.0,0.0,0.0,0.0,0.0,0.0,0.0
1703250046451994725,13937,1702029030260683298,base_link,-0.513035163845594,-0.4308317034303435,-0.4267563095619422,0.6075014536824621,0.0,0.0,0.0,0.0,0.0,0.0,0.0,0.0,0.0,0.1400090903043747,0.005846422165632248,-0.08339839428663254,0.0,0.0,0.0,0.0,0.0,0.0,0.0,0.0,0.0,8.850365922532724,-2.966120154345448,2.9854906242119137,0.0,0.0,0.0,0.0,0.0,0.0,0.0,0.0,0.0
1703250046452011907,13938,1702029030260918378,base_link,-0.512658301681618,-0.43119319693043245,-0.42664820288785216,0.6076390405581247,0.0,0.0,0.0,0.0,0.0,0.0,0.0,0.0,0.0,0.1400090903043747,0.005846422165632248,-0.08339839428663254,0.0,0.0,0.0,0.0,0.0,0.0,0.0,0.0,0.0,8.850365922532724,-2.966120154345448,2.9854906242119137,0.0,0.0,0.0,0.0,0.0,0.0,0.0,0.0,0.0
1703250046459036460,13939,1702029030267348766,base_link,-0.512658301681618,-0.43119319693043245,-0.42664820288785216,0.6076390405581247,0.0,0.0,0.0,0.0,0.0,0.0,0.0,0.0,0.0,0.21777541935443878,-0.046348731964826584,-0.017354167997837067,0.0,0.0,0.0,0.0,0.0,0.0,0.0,0.0,0.0,9.08257205884662,-2.424351195885272,2.7693692557815988,0.0,0.0,0.0,0.0,0.0,0.0,0.0,0.0,0.0
1703250046461930460,13940,1702029030270599126,base_link,-0.5121791327068115,-0.43178251376597376,-0.42588274927962344,0.608161393621516,0.0,0.0,0.0,0.0,0.0,0.0,0.0,0.0,0.0,0.21777541935443878,-0.046348731964826584,-0.017354167997837067,0.0,0.0,0.0,0.0,0.0,0.0,0.0,0.0,0.0,9.08257205884662,-2.424351195885272,2.7693692557815988,0.0,0.0,0.0,0.0,0.0,0.0,0.0,0.0,0.0
1703250046465575444,13941,1702029030274029493,base_link,-0.5121791327068115,-0.43178251376597376,-0.42588274927962344,0.608161393621516,0.0,0.0,0.0,0.0,0.0,0.0,0.0,0.0,0.0,0.5309731960296631,-0.3723175525665283,0.5781253576278687,0.0,0.0,0.0,0.0,0.0,0.0,0.0,0.0,0.0,8.345691780695288,-4.405688155390999,2.6418441625278644,0.0,0.0,0.0,0.0,0.0,0.0,0.0,0.0,0.0
1703250046468121121,13942,1702029030277282953,base_link,-0.513206703882923,-0.4319303078412928,-0.4234824309478506,0.6088659285394862,0.0,0.0,0.0,0.0,0.0,0.0,0.0,0.0,0.0,0.5309731960296631,-0.3723175525665283,0.5781253576278687,0.0,0.0,0.0,0.0,0.0,0.0,0.0,0.0,0.0,8.345691780695288,-4.405688155390999,2.6418441625278644,0.0,0.0,0.0,0.0,0.0,0.0,0.0,0.0,0.0
1703250046471926332,13943,1702029030280697345,base_link,-0.513206703882923,-0.4319303078412928,-0.4234824309478506,0.6088659285394862,0.0,0.0,0.0,0.0,0.0,0.0,0.0,0.0,0.0,0.02284938469529152,-0.5076034665107727,0.6740004420280457,0.0,0.0,0.0,0.0,0.0,0.0,0.0,0.0,0.0,9.549805765134614,-1.8764042019237253,1.1490505294392788,0.0,0.0,0.0,0.0,0.0,0.0,0.0,0.0,0.0
1703250046475587520,13944,1702029030283937215,base_link,-0.5145315606093614,-0.43196044632185093,-0.4210926457471499,0.6093836473421217,0.0,0.0,0.0,0.0,0.0,0.0,0.0,0.0,0.0,0.02284938469529152,-0.5076034665107727,0.6740004420280457,0.0,0.0,0.0,0.0,0.0,0.0,0.0,0.0,0.0,9.549805765134614,-1.8764042019237253,1.1490505294392788,0.0,0.0,0.0,0.0,0.0,0.0,0.0,0.0,0.0
1703250046478603052,13945,1702029030287361621,base_link,-0.5145315606093614,-0.43196044632185093,-0.4210926457471499,0.6093836473421217,0.0,0.0,0.0,0.0,0.0,0.0,0.0,0.0,0.0,0.263608455657959,-0.05806293338537216,0.3672031760215759,0.0,0.0,0.0,0.0,0.0,0.0,0.0,0.0,0.0,9.499593906951317,-2.2664236603847434,0.8130432919972065,0.0,0.0,0.0,0.0,0.0,0.0,0.0,0.0,0.0
1703250046481989187,13946,1702029030290601253,base_link,-0.5139926271209869,-0.4319052747484501,-0.4199008617950777,0.6106985174154945,0.0,0.0,0.0,0.0,0.0,0.0,0.0,0.0,0.0,0.263608455657959,-0.05806293338537216,0.3672031760215759,0.0,0.0,0.0,0.0,0.0,0.0,0.0,0.0,0.0,9.499593906951317,-2.2664236603847434,0.8130432919972065,0.0,0.0,0.0,0.0,0.0,0.0,0.0,0.0,0.0
1703250046485018757,13947,1702029030294024229,base_link,-0.5139926271209869,-0.4319052747484501,-0.4199008617950777,0.6106985174154945,0.0,0.0,0.0,0.0,0.0,0.0,0.0,0.0,0.0,0.7685569524765015,0.2849428355693817,0.27984702587127686,0.0,0.0,0.0,0.0,0.0,0.0,0.0,0.0,0.0,9.282357987792693,-2.9774050478998006,1.0064240493956642,0.0,0.0,0.0,0.0,0.0,0.0,0.0,0.0,0.0
1703250046488179848,13948,1702029030297263145,base_link,-0.5124264020235836,-0.43172495622075063,-0.41884802015700545,0.6128613878324464,0.0,0.0,0.0,0.0,0.0,0.0,0.0,0.0,0.0,0.7685569524765015,0.2849428355693817,0.27984702587127686,0.0,0.0,0.0,0.0,0.0,0.0,0.0,0.0,0.0,9.282357987792693,-2.9774050478998006,1.0064240493956642,0.0,0.0,0.0,0.0,0.0,0.0,0.0,0.0,0.0
1703250046491632895,13949,1702029030300694227,base_link,-0.5124264020235836,-0.43172495622075063,-0.41884802015700545,0.6128613878324464,0.0,0.0,0.0,0.0,0.0,0.0,0.0,0.0,0.0,0.45218560099601746,0.4330006241798401,0.2351025938987732,0.0,0.0,0.0,0.0,0.0,0.0,0.0,0.0,0.0,9.395905535691389,-2.5556570011216224,1.1070575671490468,0.0,0.0,0.0,0.0,0.0,0.0,0.0,0.0,0.0
1703250046495330892,13950,1702029030303944587,base_link,-0.5111448232124279,-0.4311637891857292,-0.4184417496927019,0.6146017073782418,0.0,0.0,0.0,0.0,0.0,0.0,0.0,0.0,0.0,0.45218560099601746,0.4330006241798401,0.2351025938987732,0.0,0.0,0.0,0.0,0.0,0.0,0.0,0.0,0.0,9.395905535691389,-2.5556570011216224,1.1070575671490468,0.0,0.0,0.0,0.0,0.0,0.0,0.0,0.0,0.0
1703250046498351942,13951,1702029030307356834,base_link,-0.5111448232124279,-0.4311637891857292,-0.4184417496927019,0.6146017073782418,0.0,0.0,0.0,0.0,0.0,0.0,0.0,0.0,0.0,0.4990672767162323,0.38185614347457886,0.1445518583059311,0.0,0.0,0.0,0.0,0.0,0.0,0.0,0.0,0.0,9.373883949391248,-2.746804754882333,0.7907991792490341,0.0,0.0,0.0,0.0,0.0,0.0,0.0,0.0,0.0
1703250046501842915,13952,1702029030310592651,base_link,-0.5097332857381703,-0.4307960469015521,-0.4181099330075622,0.6162554886611368,0.0,0.0,0.0,0.0,0.0,0.0,0.0,0.0,0.0,0.4990672767162323,0.38185614347457886,0.1445518583059311,0.0,0.0,0.0,0.0,0.0,0.0,0.0,0.0,0.0,9.373883949391248,-2.746804754882333,0.7907991792490341,0.0,0.0,0.0,0.0,0.0,0.0,0.0,0.0,0.0
1703250046505170519,13953,1702029030314022064,base_link,-0.5097332857381703,-0.4307960469015521,-0.4181099330075622,0.6162554886611368,0.0,0.0,0.0,0.0,0.0,0.0,0.0,0.0,0.0,0.38083192706108093,0.42658531665802,0.12430889904499054,0.0,0.0,0.0,0.0,0.0,0.0,0.0,0.0,0.0,9.333142382151795,-2.784952704289644,1.0846620254031705,0.0,0.0,0.0,0.0,0.0,0.0,0.0,0.0,0.0
1703250046508229355,13954,1702029030317263364,base_link,-0.5085168675282282,-0.4302196285085459,-0.4180863304152047,0.6176774943327591,0.0,0.0,0.0,0.0,0.0,0.0,0.0,0.0,0.0,0.38083192706108093,0.42658531665802,0.12430889904499054,0.0,0.0,0.0,0.0,0.0,0.0,0.0,0.0,0.0,9.333142382151795,-2.784952704289644,1.0846620254031705,0.0,0.0,0.0,0.0,0.0,0.0,0.0,0.0,0.0
1703250046511669201,13955,1702029030320691823,base_link,-0.5085168675282282,-0.4302196285085459,-0.4180863304152047,0.6176774943327591,0.0,0.0,0.0,0.0,0.0,0.0,0.0,0.0,0.0,0.2668552100658417,0.4073997139930725,0.03269396349787712,0.0,0.0,0.0,0.0,0.0,0.0,0.0,0.0,0.0,9.271255542800231,-2.9892286760682696,1.0716028099380563,0.0,0.0,0.0,0.0,0.0,0.0,0.0,0.0,0.0
1703250046515439140,13956,1702029030323935985,base_link,-0.5074272202239071,-0.4297595522005814,-0.4183836118684485,0.6186917623405908,0.0,0.0,0.0,0.0,0.0,0.0,0.0,0.0,0.0,0.2668552100658417,0.4073997139930725,0.03269396349787712,0.0,0.0,0.0,0.0,0.0,0.0,0.0,0.0,0.0,9.271255542800231,-2.9892286760682696,1.0716028099380563,0.0,0.0,0.0,0.0,0.0,0.0,0.0,0.0,0.0
1703250046518993394,13957,1702029030327350854,base_link,-0.5074272202239071,-0.4297595522005814,-0.4183836118684485,0.6186917623405908,0.0,0.0,0.0,0.0,0.0,0.0,0.0,0.0,0.0,0.19442085921764374,0.32749781012535095,-0.07383449375629425,0.0,0.0,0.0,0.0,0.0,0.0,0.0,0.0,0.0,9.221671811059416,-2.9947932458515014,1.4254762094522573,0.0,0.0,0.0,0.0,0.0,0.0,0.0,0.0,0.0
1703250046521847930,13958,1702029030330590963,base_link,-0.5064407975343699,-0.4295335020738156,-0.4188481139132252,0.6193423501265586,0.0,0.0,0.0,0.0,0.0,0.0,0.0,0.0,0.0,0.19442085921764374,0.32749781012535095,-0.07383449375629425,0.0,0.0,0.0,0.0,0.0,0.0,0.0,0.0,0.0,9.221671811059416,-2.9947932458515014,1.4254762094522573,0.0,0.0,0.0,0.0,0.0,0.0,0.0,0.0,0.0
1703250046528189599,13959,1702029030337352275,base_link,-0.5064407975343699,-0.4295335020738156,-0.4188481139132252,0.6193423501265586,0.0,0.0,0.0,0.0,0.0,0.0,0.0,0.0,0.0,0.12837596237659454,0.24014252424240112,-0.14414387941360474,0.0,0.0,0.0,0.0,0.0,0.0,0.0,0.0,0.0,9.176433269707701,-2.959929643121426,1.752680505503699,0.0,0.0,0.0,0.0,0.0,0.0,0.0,0.0,0.0
1703250046531855606,13960,1702029030340612649,base_link,-0.5056187585683121,-0.4295282888751514,-0.41943910413903157,0.6196175900980139,0.0,0.0,0.0,0.0,0.0,0.0,0.0,0.0,0.0,0.12837596237659454,0.24014252424240112,-0.14414387941360474,0.0,0.0,0.0,0.0,0.0,0.0,0.0,0.0,0.0,9.176433269707701,-2.959929643121426,1.752680505503699,0.0,0.0,0.0,0.0,0.0,0.0,0.0,0.0,0.0
1703250046535776412,13961,1702029030344038486,base_link,-0.5056187585683121,-0.4295282888751514,-0.41943910413903157,0.6196175900980139,0.0,0.0,0.0,0.0,0.0,0.0,0.0,0.0,0.0,0.08256857842206955,0.1613132506608963,-0.25599852204322815,0.0,0.0,0.0,0.0,0.0,0.0,0.0,0.0,0.0,9.11591098461216,-2.9735508989943162,2.024391753519431,0.0,0.0,0.0,0.0,0.0,0.0,0.0,0.0,0.0
1703250046538513887,13962,1702029030347261428,base_link,-0.504795990228401,-0.42983425708954814,-0.4201893241704978,0.6195679555422026,0.0,0.0,0.0,0.0,0.0,0.0,0.0,0.0,0.0,0.08256857842206955,0.1613132506608963,-0.25599852204322815,0.0,0.0,0.0,0.0,0.0,0.0,0.0,0.0,0.0,9.11591098461216,-2.9735508989943162,2.024391753519431,0.0,0.0,0.0,0.0,0.0,0.0,0.0,0.0,0.0
1703250046542332438,13963,1702029030350690603,base_link,-0.504795990228401,-0.42983425708954814,-0.4201893241704978,0.6195679555422026,0.0,0.0,0.0,0.0,0.0,0.0,0.0,0.0,0.0,0.09215322881937027,0.1037926971912384,-0.3518746495246887,0.0,0.0,0.0,0.0,0.0,0.0,0.0,0.0,0.0,9.11784811948663,-2.902027256101939,2.1173293260179333,0.0,0.0,0.0,0.0,0.0,0.0,0.0,0.0,0.0
1703250046544921490,13964,1702029030353925943,base_link,-0.5038860060799002,-0.4304173202356893,-0.4210163068217353,0.6193424680321552,0.0,0.0,0.0,0.0,0.0,0.0,0.0,0.0,0.0,0.09215322881937027,0.1037926971912384,-0.3518746495246887,0.0,0.0,0.0,0.0,0.0,0.0,0.0,0.0,0.0,9.11784811948663,-2.902027256101939,2.1173293260179333,0.0,0.0,0.0,0.0,0.0,0.0,0.0,0.0,0.0
1703250046548467991,13965,1702029030357361078,base_link,-0.5038860060799002,-0.4304173202356893,-0.4210163068217353,0.6193424680321552,0.0,0.0,0.0,0.0,0.0,0.0,0.0,0.0,0.0,0.11984644085168839,0.05160095915198326,-0.4200543463230133,0.0,0.0,0.0,0.0,0.0,0.0,0.0,0.0,0.0,9.14755503469621,-2.7693735746557055,2.1662887368037325,0.0,0.0,0.0,0.0,0.0,0.0,0.0,0.0,0.0
1703250046551843230,13966,1702029030360599517,base_link,-0.502893122818965,-0.4312723179649925,-0.42184540810326077,0.6189904251607492,0.0,0.0,0.0,0.0,0.0,0.0,0.0,0.0,0.0,0.11984644085168839,0.05160095915198326,-0.4200543463230133,0.0,0.0,0.0,0.0,0.0,0.0,0.0,0.0,0.0,9.14755503469621,-2.7693735746557055,2.1662887368037325,0.0,0.0,0.0,0.0,0.0,0.0,0.0,0.0,0.0
1703250046555817468,13967,1702029030364030122,base_link,-0.502893122818965,-0.4312723179649925,-0.42184540810326077,0.6189904251607492,0.0,0.0,0.0,0.0,0.0,0.0,0.0,0.0,0.0,0.15712645649909973,-0.015501948073506355,-0.4605376720428467,0.0,0.0,0.0,0.0,0.0,0.0,0.0,0.0,0.0,9.1900672167915,-2.605462425739013,2.189573040324606,0.0,0.0,0.0,0.0,0.0,0.0,0.0,0.0,0.0
1703250046558826923,13968,1702029030367259979,base_link,-0.5018709344538704,-0.43240559182464083,-0.42257903459046786,0.6185288423620756,0.0,0.0,0.0,0.0,0.0,0.0,0.0,0.0,0.0,0.15712645649909973,-0.015501948073506355,-0.4605376720428467,0.0,0.0,0.0,0.0,0.0,0.0,0.0,0.0,0.0,9.1900672167915,-2.605462425739013,2.189573040324606,0.0,0.0,0.0,0.0,0.0,0.0,0.0,0.0,0.0
1703250046561972438,13969,1702029030370688915,base_link,-0.5018709344538704,-0.43240559182464083,-0.42257903459046786,0.6185288423620756,0.0,0.0,0.0,0.0,0.0,0.0,0.0,0.0,0.0,0.1848183423280716,-0.11455953121185303,-0.5233920216560364,0.0,0.0,0.0,0.0,0.0,0.0,0.0,0.0,0.0,9.182515976129272,-2.496833084410189,2.3424826353092563,0.0,0.0,0.0,0.0,0.0,0.0,0.0,0.0,0.0
1703250046565304093,13970,1702029030373929500,base_link,-0.5008340607804554,-0.4338933142417559,-0.42323775879358533,0.6178767150086227,0.0,0.0,0.0,0.0,0.0,0.0,0.0,0.0,0.0,0.1848183423280716,-0.11455953121185303,-0.5233920216560364,0.0,0.0,0.0,0.0,0.0,0.0,0.0,0.0,0.0,9.182515976129272,-2.496833084410189,2.3424826353092563,0.0,0.0,0.0,0.0,0.0,0.0,0.0,0.0,0.0
1703250046568321231,13971,1702029030377363920,base_link,-0.5008340607804554,-0.4338933142417559,-0.42323775879358533,0.6178767150086227,0.0,0.0,0.0,0.0,0.0,0.0,0.0,0.0,0.0,0.26151207089424133,-0.06660895049571991,-0.585181713104248,0.0,0.0,0.0,0.0,0.0,0.0,0.0,0.0,0.0,9.41480540246792,-1.5905554577309364,2.2071639199532127,0.0,0.0,0.0,0.0,0.0,0.0,0.0,0.0,0.0
1703250046571767642,13972,1702029030380596399,base_link,-0.49960368136016997,-0.43556640391154866,-0.4237998304831872,0.6173101109145622,0.0,0.0,0.0,0.0,0.0,0.0,0.0,0.0,0.0,0.26151207089424133,-0.06660895049571991,-0.585181713104248,0.0,0.0,0.0,0.0,0.0,0.0,0.0,0.0,0.0,9.41480540246792,-1.5905554577309364,2.2071639199532127,0.0,0.0,0.0,0.0,0.0,0.0,0.0,0.0,0.0
1703250046575441752,13973,1702029030384035110,base_link,-0.49960368136016997,-0.43556640391154866,-0.4237998304831872,0.6173101109145622,0.0,0.0,0.0,0.0,0.0,0.0,0.0,0.0,0.0,0.2327452152967453,-0.17525063455104828,-0.5138134360313416,0.0,0.0,0.0,0.0,0.0,0.0,0.0,0.0,0.0,9.395297919731714,-2.5294642531448854,1.1705501234663753,0.0,0.0,0.0,0.0,0.0,0.0,0.0,0.0,0.0
1703250046578530343,13974,1702029030387261152,base_link,-0.49863301660772114,-0.4372659261295293,-0.4241140135100614,0.616677329029661,0.0,0.0,0.0,0.0,0.0,0.0,0.0,0.0,0.0,0.2327452152967453,-0.17525063455104828,-0.5138134360313416,0.0,0.0,0.0,0.0,0.0,0.0,0.0,0.0,0.0,9.395297919731714,-2.5294642531448854,1.1705501234663753,0.0,0.0,0.0,0.0,0.0,0.0,0.0,0.0,0.0
1703250046581971167,13975,1702029030390692234,base_link,-0.49863301660772114,-0.4372659261295293,-0.4241140135100614,0.616677329029661,0.0,0.0,0.0,0.0,0.0,0.0,0.0,0.0,0.0,0.25617706775665283,-0.29347872734069824,-0.42113983631134033,0.0,0.0,0.0,0.0,0.0,0.0,0.0,0.0,0.0,9.502755104806974,-1.5029433998191515,1.8651559063534235,0.0,0.0,0.0,0.0,0.0,0.0,0.0,0.0,0.0
1703250046584745171,13976,1702029030393931627,base_link,-0.49784261516313205,-0.43890197248769186,-0.4241919428263251,0.6160998171685937,0.0,0.0,0.0,0.0,0.0,0.0,0.0,0.0,0.0,0.25617706775665283,-0.29347872734069824,-0.42113983631134033,0.0,0.0,0.0,0.0,0.0,0.0,0.0,0.0,0.0,9.502755104806974,-1.5029433998191515,1.8651559063534235,0.0,0.0,0.0,0.0,0.0,0.0,0.0,0.0,0.0
1703250046588457975,13977,1702029030397480964,base_link,-0.49784261516313205,-0.43890197248769186,-0.4241919428263251,0.6160998171685937,0.0,0.0,0.0,0.0,0.0,0.0,0.0,0.0,0.0,0.24232541024684906,-0.29452937841415405,-0.3572279214859009,0.0,0.0,0.0,0.0,0.0,0.0,0.0,0.0,0.0,9.570024663957247,-1.6626441926901019,1.3000931581097925,0.0,0.0,0.0,0.0,0.0,0.0,0.0,0.0,0.0
1703250046591600836,13978,1702029030400631666,base_link,-0.4972012582006823,-0.4404520609554598,-0.42410185933850786,0.6155733130581337,0.0,0.0,0.0,0.0,0.0,0.0,0.0,0.0,0.0,0.24232541024684906,-0.29452937841415405,-0.3572279214859009,0.0,0.0,0.0,0.0,0.0,0.0,0.0,0.0,0.0,9.570024663957247,-1.6626441926901019,1.3000931581097925,0.0,0.0,0.0,0.0,0.0,0.0,0.0,0.0,0.0
1703250046595362603,13979,1702029030404052257,base_link,-0.4972012582006823,-0.4404520609554598,-0.42410185933850786,0.6155733130581337,0.0,0.0,0.0,0.0,0.0,0.0,0.0,0.0,0.0,0.37441468238830566,-0.025004127994179726,-0.6459192037582397,0.0,0.0,0.0,0.0,0.0,0.0,0.0,0.0,0.0,3.026234125291114,-7.908983309720975,-4.932533834195016,0.0,0.0,0.0,0.0,0.0,0.0,0.0,0.0,0.0
1703250046598867336,13980,1702029030407276391,base_link,-0.4957460029703822,-0.44205218340041336,-0.42449975859575034,0.6153257045191327,0.0,0.0,0.0,0.0,0.0,0.0,0.0,0.0,0.0,0.37441468238830566,-0.025004127994179726,-0.6459192037582397,0.0,0.0,0.0,0.0,0.0,0.0,0.0,0.0,0.0,3.026234125291114,-7.908983309720975,-4.932533834195016,0.0,0.0,0.0,0.0,0.0,0.0,0.0,0.0,0.0
1703250046605286045,13981,1702029030414011240,base_link,-0.4957460029703822,-0.44205218340041336,-0.42449975859575034,0.6153257045191327,0.0,0.0,0.0,0.0,0.0,0.0,0.0,0.0,0.0,0.20929746329784393,0.14544542133808136,-0.3497796654701233,0.0,0.0,0.0,0.0,0.0,0.0,0.0,0.0,0.0,7.431367293429957,-5.906940110731793,-2.43368828701775,0.0,0.0,0.0,0.0,0.0,0.0,0.0,0.0,0.0
1703250046608218949,13982,1702029030417267799,base_link,-0.49470147442824564,-0.44274421520922,-0.42480332670896725,0.6154592957412262,0.0,0.0,0.0,0.0,0.0,0.0,0.0,0.0,0.0,0.20929746329784393,0.14544542133808136,-0.3497796654701233,0.0,0.0,0.0,0.0,0.0,0.0,0.0,0.0,0.0,7.431367293429957,-5.906940110731793,-2.43368828701775,0.0,0.0,0.0,0.0,0.0,0.0,0.0,0.0,0.0
1703250046611727244,13983,1702029030420697927,base_link,-0.49470147442824564,-0.44274421520922,-0.42480332670896725,0.6154592957412262,0.0,0.0,0.0,0.0,0.0,0.0,0.0,0.0,0.0,0.2561706602573395,-0.03138421103358269,-0.10477200150489807,0.0,0.0,0.0,0.0,0.0,0.0,0.0,0.0,0.0,9.428550651304429,-2.563807171580804,0.7545365483114176,0.0,0.0,0.0,0.0,0.0,0.0,0.0,0.0,0.0
1703250046615652031,13984,1702029030423940181,base_link,-0.4940493360509147,-0.44325485918728424,-0.42466088271252284,0.6157138280470335,0.0,0.0,0.0,0.0,0.0,0.0,0.0,0.0,0.0,0.2561706602573395,-0.03138421103358269,-0.10477200150489807,0.0,0.0,0.0,0.0,0.0,0.0,0.0,0.0,0.0,9.428550651304429,-2.563807171580804,0.7545365483114176,0.0,0.0,0.0,0.0,0.0,0.0,0.0,0.0,0.0
1703250046618931301,13985,1702029030427377700,base_link,-0.4940493360509147,-0.44325485918728424,-0.42466088271252284,0.6157138280470335,0.0,0.0,0.0,0.0,0.0,0.0,0.0,0.0,0.0,0.15497207641601562,0.03253326937556267,-0.07068569213151932,0.0,0.0,0.0,0.0,0.0,0.0,0.0,0.0,0.0,9.556214959271491,-2.0921695743311925,0.5844502754201054,0.0,0.0,0.0,0.0,0.0,0.0,0.0,0.0,0.0
1703250046622131436,13986,1702029030430596113,base_link,-0.4935700408084256,-0.44352943603837897,-0.4246312791677776,0.6159208804190547,0.0,0.0,0.0,0.0,0.0,0.0,0.0,0.0,0.0,0.15497207641601562,0.03253326937556267,-0.07068569213151932,0.0,0.0,0.0,0.0,0.0,0.0,0.0,0.0,0.0,9.556214959271491,-2.0921695743311925,0.5844502754201054,0.0,0.0,0.0,0.0,0.0,0.0,0.0,0.0,0.0
1703250046625076632,13987,1702029030434027433,base_link,-0.4935700408084256,-0.44352943603837897,-0.4246312791677776,0.6159208804190547,0.0,0.0,0.0,0.0,0.0,0.0,0.0,0.0,0.0,0.13899430632591248,0.011229673400521278,-0.07601387053728104,0.0,0.0,0.0,0.0,0.0,0.0,0.0,0.0,0.0,9.580608452429582,-1.6399248311589218,1.250035291255114,0.0,0.0,0.0,0.0,0.0,0.0,0.0,0.0,0.0
1703250046628371967,13988,1702029030437262773,base_link,-0.49317551625181066,-0.4438099870922142,-0.424645309674459,0.6160251346320632,0.0,0.0,0.0,0.0,0.0,0.0,0.0,0.0,0.0,0.13899430632591248,0.011229673400521278,-0.07601387053728104,0.0,0.0,0.0,0.0,0.0,0.0,0.0,0.0,0.0,9.580608452429582,-1.6399248311589218,1.250035291255114,0.0,0.0,0.0,0.0,0.0,0.0,0.0,0.0,0.0
1703250046631890879,13989,1702029030440693616,base_link,-0.49317551625181066,-0.4438099870922142,-0.424645309674459,0.6160251346320632,0.0,0.0,0.0,0.0,0.0,0.0,0.0,0.0,0.0,0.05483871325850487,-0.004747187718749046,-0.06429731845855713,0.0,0.0,0.0,0.0,0.0,0.0,0.0,0.0,0.0,9.471320063394778,-2.031752302422427,1.4852874598328383,0.0,0.0,0.0,0.0,0.0,0.0,0.0,0.0,0.0
1703250046635442758,13990,1702029030443938016,base_link,-0.49300230738830897,-0.44401149720311706,-0.42469263491666226,0.6159859422980304,0.0,0.0,0.0,0.0,0.0,0.0,0.0,0.0,0.0,0.05483871325850487,-0.004747187718749046,-0.06429731845855713,0.0,0.0,0.0,0.0,0.0,0.0,0.0,0.0,0.0,9.471320063394778,-2.031752302422427,1.4852874598328383,0.0,0.0,0.0,0.0,0.0,0.0,0.0,0.0,0.0
1703250046638974382,13991,1702029030447357416,base_link,-0.49300230738830897,-0.44401149720311706,-0.42469263491666226,0.6159859422980304,0.0,0.0,0.0,0.0,0.0,0.0,0.0,0.0,0.0,0.018619447946548462,-0.04202859103679657,-0.058971986174583435,0.0,0.0,0.0,0.0,0.0,0.0,0.0,0.0,0.0,9.424594070606961,-2.0435442037879015,1.7438330457486528,0.0,0.0,0.0,0.0,0.0,0.0,0.0,0.0,0.0
1703250046642091959,13992,1702029030450594902,base_link,-0.49292351393153894,-0.44424723118547915,-0.4247260031625623,0.6158560133951559,0.0,0.0,0.0,0.0,0.0,0.0,0.0,0.0,0.0,0.018619447946548462,-0.04202859103679657,-0.058971986174583435,0.0,0.0,0.0,0.0,0.0,0.0,0.0,0.0,0.0,9.424594070606961,-2.0435442037879015,1.7438330457486528,0.0,0.0,0.0,0.0,0.0,0.0,0.0,0.0,0.0
1703250046645345596,13993,1702029030454028844,base_link,-0.49292351393153894,-0.44424723118547915,-0.4247260031625623,0.6158560133951559,0.0,0.0,0.0,0.0,0.0,0.0,0.0,0.0,0.0,0.038858819752931595,-0.07398253679275513,-0.09199629724025726,0.0,0.0,0.0,0.0,0.0,0.0,0.0,0.0,0.0,9.290665670494617,-2.4836270065375987,1.8855047842659847,0.0,0.0,0.0,0.0,0.0,0.0,0.0,0.0,0.0
1703250046648446549,13994,1702029030457263946,base_link,-0.4927908939233727,-0.44463059274239436,-0.42476558621312555,0.6156581580981204,0.0,0.0,0.0,0.0,0.0,0.0,0.0,0.0,0.0,0.038858819752931595,-0.07398253679275513,-0.09199629724025726,0.0,0.0,0.0,0.0,0.0,0.0,0.0,0.0,0.0,9.290665670494617,-2.4836270065375987,1.8855047842659847,0.0,0.0,0.0,0.0,0.0,0.0,0.0,0.0,0.0
1703250046651821299,13995,1702029030460692405,base_link,-0.4927908939233727,-0.44463059274239436,-0.42476558621312555,0.6156581580981204,0.0,0.0,0.0,0.0,0.0,0.0,0.0,0.0,0.0,0.062293641269207,-0.08782586455345154,-0.12289038300514221,0.0,0.0,0.0,0.0,0.0,0.0,0.0,0.0,0.0,9.294841896590537,-2.5575670162297284,1.7620343568951797,0.0,0.0,0.0,0.0,0.0,0.0,0.0,0.0,0.0
1703250046655525861,13996,1702029030463969469,base_link,-0.49256852784381244,-0.4451669873904393,-0.42477804922348367,0.6154398488994612,0.0,0.0,0.0,0.0,0.0,0.0,0.0,0.0,0.0,0.062293641269207,-0.08782586455345154,-0.12289038300514221,0.0,0.0,0.0,0.0,0.0,0.0,0.0,0.0,0.0,9.294841896590537,-2.5575670162297284,1.7620343568951797,0.0,0.0,0.0,0.0,0.0,0.0,0.0,0.0,0.0
1703250046658994763,13997,1702029030467377424,base_link,-0.49256852784381244,-0.4451669873904393,-0.42477804922348367,0.6154398488994612,0.0,0.0,0.0,0.0,0.0,0.0,0.0,0.0,0.0,0.08892415463924408,-0.13575613498687744,-0.1441974639892578,0.0,0.0,0.0,0.0,0.0,0.0,0.0,0.0,0.0,9.258169653214491,-2.5785017987448766,1.9177129989046158,0.0,0.0,0.0,0.0,0.0,0.0,0.0,0.0,0.0
1703250046661880312,13998,1702029030470597267,base_link,-0.4923590569039647,-0.44587265502644513,-0.4246999259621051,0.6151504754709123,0.0,0.0,0.0,0.0,0.0,0.0,0.0,0.0,0.0,0.08892415463924408,-0.13575613498687744,-0.1441974639892578,0.0,0.0,0.0,0.0,0.0,0.0,0.0,0.0,0.0,9.258169653214491,-2.5785017987448766,1.9177129989046158,0.0,0.0,0.0,0.0,0.0,0.0,0.0,0.0,0.0
1703250046665546948,13999,1702029030474164724,base_link,-0.4923590569039647,-0.44587265502644513,-0.4246999259621051,0.6151504754709123,0.0,0.0,0.0,0.0,0.0,0.0,0.0,0.0,0.0,0.1091628298163414,-0.18155421316623688,-0.16763532161712646,0.0,0.0,0.0,0.0,0.0,0.0,0.0,0.0,0.0,9.455946416797312,-1.7749810817683023,1.8640063095447676,0.0,0.0,0.0,0.0,0.0,0.0,0.0,0.0,0.0
1703250046668302652,14000,1702029030477289915,base_link,-0.49211335544663704,-0.446793514639502,-0.4245630158013525,0.6147733291879158,0.0,0.0,0.0,0.0,0.0,0.0,0.0,0.0,0.0,0.1091628298163414,-0.18155421316623688,-0.16763532161712646,0.0,0.0,0.0,0.0,0.0,0.0,0.0,0.0,0.0,9.455946416797312,-1.7749810817683023,1.8640063095447676,0.0,0.0,0.0,0.0,0.0,0.0,0.0,0.0,0.0
1703250046675604913,14001,1702029030484033346,base_link,-0.49211335544663704,-0.446793514639502,-0.4245630158013525,0.6147733291879158,0.0,0.0,0.0,0.0,0.0,0.0,0.0,0.0,0.0,0.14111892879009247,-0.24652455747127533,-0.21237893402576447,0.0,0.0,0.0,0.0,0.0,0.0,0.0,0.0,0.0,9.399087947992554,-1.886554308077811,2.034221863163946,0.0,0.0,0.0,0.0,0.0,0.0,0.0,0.0,0.0
1703250046678468879,14002,1702029030487269401,base_link,-0.4918222851411598,-0.4479044450707904,-0.42440685877806017,0.6143055153150545,0.0,0.0,0.0,0.0,0.0,0.0,0.0,0.0,0.0,0.14111892879009247,-0.24652455747127533,-0.21237893402576447,0.0,0.0,0.0,0.0,0.0,0.0,0.0,0.0,0.0,9.399087947992554,-1.886554308077811,2.034221863163946,0.0,0.0,0.0,0.0,0.0,0.0,0.0,0.0,0.0
1703250046681941832,14003,1702029030490700721,base_link,-0.4918222851411598,-0.4479044450707904,-0.42440685877806017,0.6143055153150545,0.0,0.0,0.0,0.0,0.0,0.0,0.0,0.0,0.0,0.12407244741916656,-0.24970890581607819,-0.221968874335289,0.0,0.0,0.0,0.0,0.0,0.0,0.0,0.0,0.0,9.329174553273399,-2.4261517950809086,1.7664341543861073,0.0,0.0,0.0,0.0,0.0,0.0,0.0,0.0,0.0
1703250046685014917,14004,1702029030493931770,base_link,-0.4915782630434501,-0.4491023095846672,-0.42417395448878664,0.6137869199993161,0.0,0.0,0.0,0.0,0.0,0.0,0.0,0.0,0.0,0.12407244741916656,-0.24970890581607819,-0.221968874335289,0.0,0.0,0.0,0.0,0.0,0.0,0.0,0.0,0.0,9.329174553273399,-2.4261517950809086,1.7664341543861073,0.0,0.0,0.0,0.0,0.0,0.0,0.0,0.0,0.0
1703250046688512875,14005,1702029030497377395,base_link,-0.4915782630434501,-0.4491023095846672,-0.42417395448878664,0.6137869199993161,0.0,0.0,0.0,0.0,0.0,0.0,0.0,0.0,0.0,0.15922394394874573,-0.3327859938144684,-0.2326243817806244,0.0,0.0,0.0,0.0,0.0,0.0,0.0,0.0,0.0,9.402002703354198,-1.931398160465127,1.977889357843934,0.0,0.0,0.0,0.0,0.0,0.0,0.0,0.0,0.0
1703250046691437048,14006,1702029030500597953,base_link,-0.4913432303513883,-0.4504632320616824,-0.4238749487986596,0.6131840949742084,0.0,0.0,0.0,0.0,0.0,0.0,0.0,0.0,0.0,0.15922394394874573,-0.3327859938144684,-0.2326243817806244,0.0,0.0,0.0,0.0,0.0,0.0,0.0,0.0,0.0,9.402002703354198,-1.931398160465127,1.977889357843934,0.0,0.0,0.0,0.0,0.0,0.0,0.0,0.0,0.0
1703250046695369867,14007,1702029030504040241,base_link,-0.4913432303513883,-0.4504632320616824,-0.4238749487986596,0.6131840949742084,0.0,0.0,0.0,0.0,0.0,0.0,0.0,0.0,0.0,0.16135171055793762,-0.34981569647789,-0.26991161704063416,0.0,0.0,0.0,0.0,0.0,0.0,0.0,0.0,0.0,9.380101917348966,-2.026419603480357,1.9867842386068946,0.0,0.0,0.0,0.0,0.0,0.0,0.0,0.0,0.0
1703250046698335250,14008,1702029030507266044,base_link,-0.4910548547104631,-0.4519380422977086,-0.42363066603160643,0.6124983219462875,0.0,0.0,0.0,0.0,0.0,0.0,0.0,0.0,0.0,0.16135171055793762,-0.34981569647789,-0.26991161704063416,0.0,0.0,0.0,0.0,0.0,0.0,0.0,0.0,0.0,9.380101917348966,-2.026419603480357,1.9867842386068946,0.0,0.0,0.0,0.0,0.0,0.0,0.0,0.0,0.0
1703250046701635613,14009,1702029030510698795,base_link,-0.4910548547104631,-0.4519380422977086,-0.42363066603160643,0.6124983219462875,0.0,0.0,0.0,0.0,0.0,0.0,0.0,0.0,0.0,0.1560221165418625,-0.3540613353252411,-0.2912200391292572,0.0,0.0,0.0,0.0,0.0,0.0,0.0,0.0,0.0,9.440651315350514,-1.7999683970558815,1.9168245907152592,0.0,0.0,0.0,0.0,0.0,0.0,0.0,0.0,0.0
1703250046704941215,14010,1702029030513928890,base_link,-0.49079200687269514,-0.4534050434381025,-0.42343773648678906,0.6117577591610173,0.0,0.0,0.0,0.0,0.0,0.0,0.0,0.0,0.0,0.1560221165418625,-0.3540613353252411,-0.2912200391292572,0.0,0.0,0.0,0.0,0.0,0.0,0.0,0.0,0.0,9.440651315350514,-1.7999683970558815,1.9168245907152592,0.0,0.0,0.0,0.0,0.0,0.0,0.0,0.0,0.0
1703250046708416194,14011,1702029030517360448,base_link,-0.49079200687269514,-0.4534050434381025,-0.42343773648678906,0.6117577591610173,0.0,0.0,0.0,0.0,0.0,0.0,0.0,0.0,0.0,0.1112772673368454,-0.34658923745155334,-0.29122284054756165,0.0,0.0,0.0,0.0,0.0,0.0,0.0,0.0,0.0,9.483933420450187,-1.7002838597267613,1.7899837074176677,0.0,0.0,0.0,0.0,0.0,0.0,0.0,0.0,0.0
1703250046711431027,14012,1702029030520594596,base_link,-0.49058442010017206,-0.45477413465073746,-0.4233421584655872,0.6109736737972827,0.0,0.0,0.0,0.0,0.0,0.0,0.0,0.0,0.0,0.1112772673368454,-0.34658923745155334,-0.29122284054756165,0.0,0.0,0.0,0.0,0.0,0.0,0.0,0.0,0.0,9.483933420450187,-1.7002838597267613,1.7899837074176677,0.0,0.0,0.0,0.0,0.0,0.0,0.0,0.0,0.0
1703250046715559695,14013,1702029030524034738,base_link,-0.49058442010017206,-0.45477413465073746,-0.4233421584655872,0.6109736737972827,0.0,0.0,0.0,0.0,0.0,0.0,0.0,0.0,0.0,0.09849023818969727,-0.3124864101409912,-0.2858991026878357,0.0,0.0,0.0,0.0,0.0,0.0,0.0,0.0,0.0,9.491025521327021,-1.743914900088457,1.708565297191943,0.0,0.0,0.0,0.0,0.0,0.0,0.0,0.0,0.0
1703250046718643885,14014,1702029030527261257,base_link,-0.4903671339817673,-0.4560251282803487,-0.42330078016584943,0.6102438904228228,0.0,0.0,0.0,0.0,0.0,0.0,0.0,0.0,0.0,0.09849023818969727,-0.3124864101409912,-0.2858991026878357,0.0,0.0,0.0,0.0,0.0,0.0,0.0,0.0,0.0,9.491025521327021,-1.743914900088457,1.708565297191943,0.0,0.0,0.0,0.0,0.0,0.0,0.0,0.0,0.0
1703250046722203238,14015,1702029030530692815,base_link,-0.4903671339817673,-0.4560251282803487,-0.42330078016584943,0.6102438904228228,0.0,0.0,0.0,0.0,0.0,0.0,0.0,0.0,0.0,0.08357294648885727,-0.27092817425727844,-0.2688572406768799,0.0,0.0,0.0,0.0,0.0,0.0,0.0,0.0,0.0,9.45410130732706,-1.7104927719707645,1.9324034122906533,0.0,0.0,0.0,0.0,0.0,0.0,0.0,0.0,0.0
1703250046725215068,14016,1702029030533927440,base_link,-0.4901530598171764,-0.45714633031512986,-0.4233073182875813,0.6095720834449738,0.0,0.0,0.0,0.0,0.0,0.0,0.0,0.0,0.0,0.08357294648885727,-0.27092817425727844,-0.2688572406768799,0.0,0.0,0.0,0.0,0.0,0.0,0.0,0.0,0.0,9.45410130732706,-1.7104927719707645,1.9324034122906533,0.0,0.0,0.0,0.0,0.0,0.0,0.0,0.0,0.0
1703250046732301854,14017,1702029030540682315,base_link,-0.4901530598171764,-0.45714633031512986,-0.4233073182875813,0.6095720834449738,0.0,0.0,0.0,0.0,0.0,0.0,0.0,0.0,0.0,0.06972107291221619,-0.2698507308959961,-0.2518152594566345,0.0,0.0,0.0,0.0,0.0,0.0,0.0,0.0,0.0,9.415528910337928,-1.7356095929094395,2.091763533383115,0.0,0.0,0.0,0.0,0.0,0.0,0.0,0.0,0.0
1703250046732334262,14018,1702029030540910482,base_link,-0.49001499295141526,-0.45824372599321145,-0.4232993541884543,0.6088642303620082,0.0,0.0,0.0,0.0,0.0,0.0,0.0,0.0,0.0,0.06972107291221619,-0.2698507308959961,-0.2518152594566345,0.0,0.0,0.0,0.0,0.0,0.0,0.0,0.0,0.0,9.415528910337928,-1.7356095929094395,2.091763533383115,0.0,0.0,0.0,0.0,0.0,0.0,0.0,0.0,0.0
1703250046738936806,14019,1702029030547343015,base_link,-0.49001499295141526,-0.45824372599321145,-0.4232993541884543,0.6088642303620082,0.0,0.0,0.0,0.0,0.0,0.0,0.0,0.0,0.0,0.038824502378702164,-0.30605676770210266,-0.25714361667633057,0.0,0.0,0.0,0.0,0.0,0.0,0.0,0.0,0.0,9.394682858778522,-1.8005355595864603,2.1302595338685224,0.0,0.0,0.0,0.0,0.0,0.0,0.0,0.0,0.0
1703250046742088886,14020,1702029030550595760,base_link,-0.4899697256790272,-0.4593934200887425,-0.42327962470305475,0.6080474593388482,0.0,0.0,0.0,0.0,0.0,0.0,0.0,0.0,0.0,0.038824502378702164,-0.30605676770210266,-0.25714361667633057,0.0,0.0,0.0,0.0,0.0,0.0,0.0,0.0,0.0,9.394682858778522,-1.8005355595864603,2.1302595338685224,0.0,0.0,0.0,0.0,0.0,0.0,0.0,0.0,0.0
1703250046745334770,14021,1702029030554039239,base_link,-0.4899697256790272,-0.4593934200887425,-0.42327962470305475,0.6080474593388482,0.0,0.0,0.0,0.0,0.0,0.0,0.0,0.0,0.0,0.04947296530008316,-0.33267444372177124,-0.26886358857154846,0.0,0.0,0.0,0.0,0.0,0.0,0.0,0.0,0.0,9.360150591617558,-1.8872224959023034,2.2058948644941765,0.0,0.0,0.0,0.0,0.0,0.0,0.0,0.0,0.0
1703250046748187141,14022,1702029030557273864,base_link,-0.4899077117383097,-0.46060224742685274,-0.4231976618919966,0.6072394442176929,0.0,0.0,0.0,0.0,0.0,0.0,0.0,0.0,0.0,0.04947296530008316,-0.33267444372177124,-0.26886358857154846,0.0,0.0,0.0,0.0,0.0,0.0,0.0,0.0,0.0,9.360150591617558,-1.8872224959023034,2.2058948644941765,0.0,0.0,0.0,0.0,0.0,0.0,0.0,0.0,0.0
1703250046751812010,14023,1702029030560692310,base_link,-0.4899077117383097,-0.46060224742685274,-0.4231976618919966,0.6072394442176929,0.0,0.0,0.0,0.0,0.0,0.0,0.0,0.0,0.0,0.08888418972492218,-0.34118276834487915,-0.24543003737926483,0.0,0.0,0.0,0.0,0.0,0.0,0.0,0.0,0.0,9.30690305855649,-2.0775359629646415,2.259513173500092,0.0,0.0,0.0,0.0,0.0,0.0,0.0,0.0,0.0
1703250046755500019,14024,1702029030563950777,base_link,-0.48980254664329614,-0.4618362913824798,-0.4229794282558132,0.6065386290552353,0.0,0.0,0.0,0.0,0.0,0.0,0.0,0.0,0.0,0.08888418972492218,-0.34118276834487915,-0.24543003737926483,0.0,0.0,0.0,0.0,0.0,0.0,0.0,0.0,0.0,9.30690305855649,-2.0775359629646415,2.259513173500092,0.0,0.0,0.0,0.0,0.0,0.0,0.0,0.0,0.0
1703250046758749255,14025,1702029030567361116,base_link,-0.48980254664329614,-0.4618362913824798,-0.4229794282558132,0.6065386290552353,0.0,0.0,0.0,0.0,0.0,0.0,0.0,0.0,0.0,0.15599340200424194,-0.33371275663375854,-0.21453993022441864,0.0,0.0,0.0,0.0,0.0,0.0,0.0,0.0,0.0,9.273338143344844,-2.1332263521526285,2.344044583549391,0.0,0.0,0.0,0.0,0.0,0.0,0.0,0.0,0.0
1703250046761956724,14026,1702029030570594310,base_link,-0.48956927156540275,-0.46312955389021676,-0.4225934758350173,0.606009652426468,0.0,0.0,0.0,0.0,0.0,0.0,0.0,0.0,0.0,0.15599340200424194,-0.33371275663375854,-0.21453993022441864,0.0,0.0,0.0,0.0,0.0,0.0,0.0,0.0,0.0,9.273338143344844,-2.1332263521526285,2.344044583549391,0.0,0.0,0.0,0.0,0.0,0.0,0.0,0.0,0.0
1703250046765089597,14027,1702029030574026823,base_link,-0.48956927156540275,-0.46312955389021676,-0.4225934758350173,0.606009652426468,0.0,0.0,0.0,0.0,0.0,0.0,0.0,0.0,0.0,0.23162595927715302,-0.33369988203048706,-0.19643352925777435,0.0,0.0,0.0,0.0,0.0,0.0,0.0,0.0,0.0,9.254986898487088,-2.2027470449126025,2.352259119434159,0.0,0.0,0.0,0.0,0.0,0.0,0.0,0.0,0.0
1703250046768116443,14028,1702029030577262639,base_link,-0.489235962955532,-0.4645057387428322,-0.42203478311606,0.6056147563147131,0.0,0.0,0.0,0.0,0.0,0.0,0.0,0.0,0.0,0.23162595927715302,-0.33369988203048706,-0.19643352925777435,0.0,0.0,0.0,0.0,0.0,0.0,0.0,0.0,0.0,9.254986898487088,-2.2027470449126025,2.352259119434159,0.0,0.0,0.0,0.0,0.0,0.0,0.0,0.0,0.0
1703250046771788597,14029,1702029030580690860,base_link,-0.489235962955532,-0.4645057387428322,-0.42203478311606,0.6056147563147131,0.0,0.0,0.0,0.0,0.0,0.0,0.0,0.0,0.0,0.2827584147453308,-0.3731015622615814,-0.16234849393367767,0.0,0.0,0.0,0.0,0.0,0.0,0.0,0.0,0.0,9.316498249528742,-2.0341036518067446,2.259487264897587,0.0,0.0,0.0,0.0,0.0,0.0,0.0,0.0,0.0
1703250046775314564,14030,1702029030583938360,base_link,-0.4888948426010291,-0.4660288791218481,-0.42123962887694233,0.6052735677081602,0.0,0.0,0.0,0.0,0.0,0.0,0.0,0.0,0.0,0.2827584147453308,-0.3731015622615814,-0.16234849393367767,0.0,0.0,0.0,0.0,0.0,0.0,0.0,0.0,0.0,9.316498249528742,-2.0341036518067446,2.259487264897587,0.0,0.0,0.0,0.0,0.0,0.0,0.0,0.0,0.0
1703250046778633437,14031,1702029030587355136,base_link,-0.4888948426010291,-0.4660288791218481,-0.42123962887694233,0.6052735677081602,0.0,0.0,0.0,0.0,0.0,0.0,0.0,0.0,0.0,0.3413483202457428,-0.44445955753326416,-0.15809132158756256,0.0,0.0,0.0,0.0,0.0,0.0,0.0,0.0,0.0,9.291725027369536,-2.2328857143504437,2.172111277629286,0.0,0.0,0.0,0.0,0.0,0.0,0.0,0.0,0.0
1703250046782315020,14032,1702029030590728998,base_link,-0.4885359582478462,-0.4677439463986962,-0.42023561168776224,0.604938218974173,0.0,0.0,0.0,0.0,0.0,0.0,0.0,0.0,0.0,0.3413483202457428,-0.44445955753326416,-0.15809132158756256,0.0,0.0,0.0,0.0,0.0,0.0,0.0,0.0,0.0,9.291725027369536,-2.2328857143504437,2.172111277629286,0.0,0.0,0.0,0.0,0.0,0.0,0.0,0.0,0.0
1703250046785103622,14033,1702029030594096422,base_link,-0.4885359582478462,-0.4677439463986962,-0.42023561168776224,0.604938218974173,0.0,0.0,0.0,0.0,0.0,0.0,0.0,0.0,0.0,0.39461272954940796,-0.4700106382369995,-0.12081129103899002,0.0,0.0,0.0,0.0,0.0,0.0,0.0,0.0,0.0,9.282181304392704,-2.2657990968371324,2.178821857140831,0.0,0.0,0.0,0.0,0.0,0.0,0.0,0.0,0.0
1703250046788319751,14034,1702029030597311496,base_link,-0.48815143451590065,-0.4695146072089189,-0.4190422040547551,0.6047047559085805,0.0,0.0,0.0,0.0,0.0,0.0,0.0,0.0,0.0,0.39461272954940796,-0.4700106382369995,-0.12081129103899002,0.0,0.0,0.0,0.0,0.0,0.0,0.0,0.0,0.0,9.282181304392704,-2.2657990968371324,2.178821857140831,0.0,0.0,0.0,0.0,0.0,0.0,0.0,0.0,0.0
1703250046791753870,14035,1702029030600718021,base_link,-0.48815143451590065,-0.4695146072089189,-0.4190422040547551,0.6047047559085805,0.0,0.0,0.0,0.0,0.0,0.0,0.0,0.0,0.0,0.38822275400161743,-0.46466925740242004,-0.11761981248855591,0.0,0.0,0.0,0.0,0.0,0.0,0.0,0.0,0.0,9.33370691780782,-2.176768390360723,2.0453837163703055,0.0,0.0,0.0,0.0,0.0,0.0,0.0,0.0,0.0
1703250046795209082,14036,1702029030603955268,base_link,-0.4878142080487042,-0.47125252279195057,-0.4178702387897112,0.6044359533663326,0.0,0.0,0.0,0.0,0.0,0.0,0.0,0.0,0.0,0.38822275400161743,-0.46466925740242004,-0.11761981248855591,0.0,0.0,0.0,0.0,0.0,0.0,0.0,0.0,0.0,9.33370691780782,-2.176768390360723,2.0453837163703055,0.0,0.0,0.0,0.0,0.0,0.0,0.0,0.0,0.0
1703250046798656682,14037,1702029030607371091,base_link,-0.4878142080487042,-0.47125252279195057,-0.4178702387897112,0.6044359533663326,0.0,0.0,0.0,0.0,0.0,0.0,0.0,0.0,0.0,0.4127252399921417,-0.5125902891159058,-0.12614625692367554,0.0,0.0,0.0,0.0,0.0,0.0,0.0,0.0,0.0,9.458554818196333,-1.977475492988168,1.632584278316471,0.0,0.0,0.0,0.0,0.0,0.0,0.0,0.0,0.0
1703250046801654053,14038,1702029030610619544,base_link,-0.4874350153336074,-0.4731644566725687,-0.41661575563627207,0.6041140744297362,0.0,0.0,0.0,0.0,0.0,0.0,0.0,0.0,0.0,0.4127252399921417,-0.5125902891159058,-0.12614625692367554,0.0,0.0,0.0,0.0,0.0,0.0,0.0,0.0,0.0,9.458554818196333,-1.977475492988168,1.632584278316471,0.0,0.0,0.0,0.0,0.0,0.0,0.0,0.0,0.0
1703250046805293310,14039,1702029030614043951,base_link,-0.4874350153336074,-0.4731644566725687,-0.41661575563627207,0.6041140744297362,0.0,0.0,0.0,0.0,0.0,0.0,0.0,0.0,0.0,0.40313881635665894,-0.5125732421875,-0.16450032591819763,0.0,0.0,0.0,0.0,0.0,0.0,0.0,0.0,0.0,9.443766382102785,-2.1909608142633017,1.4335156890065734,0.0,0.0,0.0,0.0,0.0,0.0,0.0,0.0,0.0
1703250046808163771,14040,1702029030617273330,base_link,-0.487028300292377,-0.4750878867523255,-0.4154914446093423,0.6037067119321846,0.0,0.0,0.0,0.0,0.0,0.0,0.0,0.0,0.0,0.40313881635665894,-0.5125732421875,-0.16450032591819763,0.0,0.0,0.0,0.0,0.0,0.0,0.0,0.0,0.0,9.443766382102785,-2.1909608142633017,1.4335156890065734,0.0,0.0,0.0,0.0,0.0,0.0,0.0,0.0,0.0
1703250046815110935,14041,1702029030624038696,base_link,-0.487028300292377,-0.4750878867523255,-0.4154914446093423,0.6037067119321846,0.0,0.0,0.0,0.0,0.0,0.0,0.0,0.0,0.0,0.3860948979854584,-0.5029687285423279,-0.18900585174560547,0.0,0.0,0.0,0.0,0.0,0.0,0.0,0.0,0.0,9.508370283049057,-2.1082154064398546,1.0891842637860742,0.0,0.0,0.0,0.0,0.0,0.0,0.0,0.0,0.0
1703250046818303876,14042,1702029030627264499,base_link,-0.4865923877933042,-0.4769933391162034,-0.414435846120518,0.6032811384675936,0.0,0.0,0.0,0.0,0.0,0.0,0.0,0.0,0.0,0.3860948979854584,-0.5029687285423279,-0.18900585174560547,0.0,0.0,0.0,0.0,0.0,0.0,0.0,0.0,0.0,9.508370283049057,-2.1082154064398546,1.0891842637860742,0.0,0.0,0.0,0.0,0.0,0.0,0.0,0.0,0.0
1703250046822349356,14043,1702029030630694627,base_link,-0.4865923877933042,-0.4769933391162034,-0.414435846120518,0.6032811384675936,0.0,0.0,0.0,0.0,0.0,0.0,0.0,0.0,0.0,0.37544241547584534,-0.4827118515968323,-0.20285873115062714,0.0,0.0,0.0,0.0,0.0,0.0,0.0,0.0,0.0,9.546807571837792,-2.032503623893032,0.876010391012736,0.0,0.0,0.0,0.0,0.0,0.0,0.0,0.0,0.0
1703250046825120986,14044,1702029030633942365,base_link,-0.4861405182586746,-0.47884547519170517,-0.4134942945132898,0.602824083626869,0.0,0.0,0.0,0.0,0.0,0.0,0.0,0.0,0.0,0.37544241547584534,-0.4827118515968323,-0.20285873115062714,0.0,0.0,0.0,0.0,0.0,0.0,0.0,0.0,0.0,9.546807571837792,-2.032503623893032,0.876010391012736,0.0,0.0,0.0,0.0,0.0,0.0,0.0,0.0,0.0
1703250046828206783,14045,1702029030637374877,base_link,-0.4861405182586746,-0.47884547519170517,-0.4134942945132898,0.602824083626869,0.0,0.0,0.0,0.0,0.0,0.0,0.0,0.0,0.0,0.3424186706542969,-0.48162975907325745,-0.22416822612285614,0.0,0.0,0.0,0.0,0.0,0.0,0.0,0.0,0.0,9.526480929375804,-2.1435673375405546,0.8314326019999554,0.0,0.0,0.0,0.0,0.0,0.0,0.0,0.0,0.0
1703250046831460280,14046,1702029030640602827,base_link,-0.4857499870519928,-0.4806973281608248,-0.41259812079571373,0.6022788552604839,0.0,0.0,0.0,0.0,0.0,0.0,0.0,0.0,0.0,0.3424186706542969,-0.48162975907325745,-0.22416822612285614,0.0,0.0,0.0,0.0,0.0,0.0,0.0,0.0,0.0,9.526480929375804,-2.1435673375405546,0.8314326019999554,0.0,0.0,0.0,0.0,0.0,0.0,0.0,0.0,0.0
1703250046835014534,14047,1702029030644035577,base_link,-0.4857499870519928,-0.4806973281608248,-0.41259812079571373,0.6022788552604839,0.0,0.0,0.0,0.0,0.0,0.0,0.0,0.0,0.0,0.3083295226097107,-0.4837433993816376,-0.1964753270149231,0.0,0.0,0.0,0.0,0.0,0.0,0.0,0.0,0.0,9.526398396215564,-2.1317722401004815,0.8621372935435073,0.0,0.0,0.0,0.0,0.0,0.0,0.0,0.0,0.0
1703250046838753600,14048,1702029030647264719,base_link,-0.4854559298579093,-0.48244886240348583,-0.4116916581357026,0.6017355016557118,0.0,0.0,0.0,0.0,0.0,0.0,0.0,0.0,0.0,0.3083295226097107,-0.4837433993816376,-0.1964753270149231,0.0,0.0,0.0,0.0,0.0,0.0,0.0,0.0,0.0,9.526398396215564,-2.1317722401004815,0.8621372935435073,0.0,0.0,0.0,0.0,0.0,0.0,0.0,0.0,0.0
1703250046842393276,14049,1702029030650702953,base_link,-0.4854559298579093,-0.48244886240348583,-0.4116916581357026,0.6017355016557118,0.0,0.0,0.0,0.0,0.0,0.0,0.0,0.0,0.0,0.2444126456975937,-0.574273407459259,-0.1741083562374115,0.0,0.0,0.0,0.0,0.0,0.0,0.0,0.0,0.0,9.532891872213854,-2.138331613966349,0.7690971729184355,0.0,0.0,0.0,0.0,0.0,0.0,0.0,0.0,0.0
1703250046845519932,14050,1702029030653944492,base_link,-0.48590777827338727,-0.48383218023093294,-0.41110327164816773,0.6006614291150845,0.0,0.0,0.0,0.0,0.0,0.0,0.0,0.0,0.0,0.2444126456975937,-0.574273407459259,-0.1741083562374115,0.0,0.0,0.0,0.0,0.0,0.0,0.0,0.0,0.0,9.532891872213854,-2.138331613966349,0.7690971729184355,0.0,0.0,0.0,0.0,0.0,0.0,0.0,0.0,0.0
1703250046848701767,14051,1702029030657371282,base_link,-0.48590777827338727,-0.48383218023093294,-0.41110327164816773,0.6006614291150845,0.0,0.0,0.0,0.0,0.0,0.0,0.0,0.0,0.0,0.07183541357517242,-0.5188635587692261,-0.14534716308116913,0.0,0.0,0.0,0.0,0.0,0.0,0.0,0.0,0.0,9.394026806789775,-0.7676465560099238,-2.6838366415192283,0.0,0.0,0.0,0.0,0.0,0.0,0.0,0.0,0.0
1703250046851633763,14052,1702029030660597801,base_link,-0.48603298052659993,-0.48526858744703305,-0.4104445901819323,0.5998512967961116,0.0,0.0,0.0,0.0,0.0,0.0,0.0,0.0,0.0,0.07183541357517242,-0.5188635587692261,-0.14534716308116913,0.0,0.0,0.0,0.0,0.0,0.0,0.0,0.0,0.0,9.394026806789775,-0.7676465560099238,-2.6838366415192283,0.0,0.0,0.0,0.0,0.0,0.0,0.0,0.0,0.0
1703250046855474246,14053,1702029030664042949,base_link,-0.48603298052659993,-0.48526858744703305,-0.4104445901819323,0.5998512967961116,0.0,0.0,0.0,0.0,0.0,0.0,0.0,0.0,0.0,0.18368661403656006,-0.31431934237480164,-0.1911563128232956,0.0,0.0,0.0,0.0,0.0,0.0,0.0,0.0,0.0,9.39250650882101,-2.7722443102096492,0.3680801084889013,0.0,0.0,0.0,0.0,0.0,0.0,0.0,0.0,0.0
1703250046858573803,14054,1702029030667267560,base_link,-0.48561361508514456,-0.48647431238111205,-0.4099565908068279,0.5995479579577472,0.0,0.0,0.0,0.0,0.0,0.0,0.0,0.0,0.0,0.18368661403656006,-0.31431934237480164,-0.1911563128232956,0.0,0.0,0.0,0.0,0.0,0.0,0.0,0.0,0.0,9.39250650882101,-2.7722443102096492,0.3680801084889013,0.0,0.0,0.0,0.0,0.0,0.0,0.0,0.0,0.0
1703250046862050108,14055,1702029030670698165,base_link,-0.48561361508514456,-0.48647431238111205,-0.4099565908068279,0.5995479579577472,0.0,0.0,0.0,0.0,0.0,0.0,0.0,0.0,0.0,0.3243028521537781,-0.08421497046947479,-0.14535337686538696,0.0,0.0,0.0,0.0,0.0,0.0,0.0,0.0,0.0,9.653854964495304,-1.6595393600042243,0.29835119756111195,0.0,0.0,0.0,0.0,0.0,0.0,0.0,0.0,0.0
1703250046865204564,14056,1702029030673978805,base_link,-0.484668638633421,-0.48738830205634825,-0.4094255418226867,0.5999330624720193,0.0,0.0,0.0,0.0,0.0,0.0,0.0,0.0,0.0,0.3243028521537781,-0.08421497046947479,-0.14535337686538696,0.0,0.0,0.0,0.0,0.0,0.0,0.0,0.0,0.0,9.653854964495304,-1.6595393600042243,0.29835119756111195,0.0,0.0,0.0,0.0,0.0,0.0,0.0,0.0,0.0
1703250046868699030,14057,1702029030677384853,base_link,-0.484668638633421,-0.48738830205634825,-0.4094255418226867,0.5999330624720193,0.0,0.0,0.0,0.0,0.0,0.0,0.0,0.0,0.0,0.5416220426559448,0.08409851044416428,-0.08357248455286026,0.0,0.0,0.0,0.0,0.0,0.0,0.0,0.0,0.0,9.62982955222224,-1.7398796254935613,0.5283953859938499,0.0,0.0,0.0,0.0,0.0,0.0,0.0,0.0,0.0
1703250046871640105,14058,1702029030680604696,base_link,-0.4832034611705194,-0.48810756522210735,-0.4087787256869552,0.6009703597612162,0.0,0.0,0.0,0.0,0.0,0.0,0.0,0.0,0.0,0.5416220426559448,0.08409851044416428,-0.08357248455286026,0.0,0.0,0.0,0.0,0.0,0.0,0.0,0.0,0.0,9.62982955222224,-1.7398796254935613,0.5283953859938499,0.0,0.0,0.0,0.0,0.0,0.0,0.0,0.0,0.0
1703250046875467108,14059,1702029030684034824,base_link,-0.4832034611705194,-0.48810756522210735,-0.4087787256869552,0.6009703597612162,0.0,0.0,0.0,0.0,0.0,0.0,0.0,0.0,0.0,0.5597387552261353,0.13629452884197235,-0.03990136831998825,0.0,0.0,0.0,0.0,0.0,0.0,0.0,0.0,0.0,9.563433069482688,-1.9372051259022234,0.9099363855254318,0.0,0.0,0.0,0.0,0.0,0.0,0.0,0.0,0.0
1703250046878450441,14060,1702029030687268257,base_link,-0.4812059478633249,-0.48896204852792274,-0.40779986965454945,0.6025414650877307,0.0,0.0,0.0,0.0,0.0,0.0,0.0,0.0,0.0,0.5597387552261353,0.13629452884197235,-0.03990136831998825,0.0,0.0,0.0,0.0,0.0,0.0,0.0,0.0,0.0,9.563433069482688,-1.9372051259022234,0.9099363855254318,0.0,0.0,0.0,0.0,0.0,0.0,0.0,0.0,0.0
1703250046885839171,14061,1702029030694293022,base_link,-0.4812059478633249,-0.48896204852792274,-0.40779986965454945,0.6025414650877307,0.0,0.0,0.0,0.0,0.0,0.0,0.0,0.0,0.0,0.9198106527328491,0.27051305770874023,-0.03777836263179779,0.0,0.0,0.0,0.0,0.0,0.0,0.0,0.0,0.0,9.168416738081254,-2.48557000374837,2.4087499399767123,0.0,0.0,0.0,0.0,0.0,0.0,0.0,0.0,0.0
1703250046885853839,14062,1702029030694639921,base_link,-0.478890636006006,-0.4896778630273982,-0.4068108373035602,0.6044702572162338,0.0,0.0,0.0,0.0,0.0,0.0,0.0,0.0,0.0,0.9198106527328491,0.27051305770874023,-0.03777836263179779,0.0,0.0,0.0,0.0,0.0,0.0,0.0,0.0,0.0,9.168416738081254,-2.48557000374837,2.4087499399767123,0.0,0.0,0.0,0.0,0.0,0.0,0.0,0.0,0.0
1703250046892144100,14063,1702029030700924634,base_link,-0.478890636006006,-0.4896778630273982,-0.4068108373035602,0.6044702572162338,0.0,0.0,0.0,0.0,0.0,0.0,0.0,0.0,0.0,0.8867992758750916,0.22896155714988708,0.011217260733246803,0.0,0.0,0.0,0.0,0.0,0.0,0.0,0.0,0.0,9.442514640266666,-1.867159523681127,1.8419100362060519,0.0,0.0,0.0,0.0,0.0,0.0,0.0,0.0,0.0
1703250046895457595,14064,1702029030704183578,base_link,-0.47673348169880936,-0.490561086342149,-0.4055171485991278,0.6063256964587387,0.0,0.0,0.0,0.0,0.0,0.0,0.0,0.0,0.0,0.8867992758750916,0.22896155714988708,0.011217260733246803,0.0,0.0,0.0,0.0,0.0,0.0,0.0,0.0,0.0,9.442514640266666,-1.867159523681127,1.8419100362060519,0.0,0.0,0.0,0.0,0.0,0.0,0.0,0.0,0.0
1703250046898646834,14065,1702029030707599639,base_link,-0.47673348169880936,-0.490561086342149,-0.4055171485991278,0.6063256964587387,0.0,0.0,0.0,0.0,0.0,0.0,0.0,0.0,0.0,0.91557377576828,0.06703884899616241,0.045298755168914795,0.0,0.0,0.0,0.0,0.0,0.0,0.0,0.0,0.0,9.396592240657782,-2.069492938624717,1.8604443662180379,0.0,0.0,0.0,0.0,0.0,0.0,0.0,0.0,0.0
1703250046901649234,14066,1702029030710841894,base_link,-0.4748646563690573,-0.49170940031969873,-0.403890343745709,0.6079457327736681,0.0,0.0,0.0,0.0,0.0,0.0,0.0,0.0,0.0,0.91557377576828,0.06703884899616241,0.045298755168914795,0.0,0.0,0.0,0.0,0.0,0.0,0.0,0.0,0.0,9.396592240657782,-2.069492938624717,1.8604443662180379,0.0,0.0,0.0,0.0,0.0,0.0,0.0,0.0,0.0
1703250046905653995,14067,1702029030714232683,base_link,-0.4748646563690573,-0.49170940031969873,-0.403890343745709,0.6079457327736681,0.0,0.0,0.0,0.0,0.0,0.0,0.0,0.0,0.0,0.8388860821723938,-0.10553260147571564,0.06446690857410431,0.0,0.0,0.0,0.0,0.0,0.0,0.0,0.0,0.0,9.349640963887953,-2.072576025038018,2.0805389846926596,0.0,0.0,0.0,0.0,0.0,0.0,0.0,0.0,0.0
1703250046908750199,14068,1702029030717494249,base_link,-0.47337915197269703,-0.4931140998655077,-0.4020895480849914,0.6091589762223386,0.0,0.0,0.0,0.0,0.0,0.0,0.0,0.0,0.0,0.8388860821723938,-0.10553260147571564,0.06446690857410431,0.0,0.0,0.0,0.0,0.0,0.0,0.0,0.0,0.0,9.349640963887953,-2.072576025038018,2.0805389846926596,0.0,0.0,0.0,0.0,0.0,0.0,0.0,0.0,0.0
1703250046911981834,14069,1702029030720936298,base_link,-0.47337915197269703,-0.4931140998655077,-0.4020895480849914,0.6091589762223386,0.0,0.0,0.0,0.0,0.0,0.0,0.0,0.0,0.0,0.8165253400802612,-0.27490341663360596,0.041024573147296906,0.0,0.0,0.0,0.0,0.0,0.0,0.0,0.0,0.0,9.399670867085138,-2.128731844556969,1.7761442296277674,0.0,0.0,0.0,0.0,0.0,0.0,0.0,0.0,0.0
1703250046915581628,14070,1702029030724183559,base_link,-0.47210122231564927,-0.49486093595726266,-0.4000648643927176,0.6100665490174072,0.0,0.0,0.0,0.0,0.0,0.0,0.0,0.0,0.0,0.8165253400802612,-0.27490341663360596,0.041024573147296906,0.0,0.0,0.0,0.0,0.0,0.0,0.0,0.0,0.0,9.399670867085138,-2.128731844556969,1.7761442296277674,0.0,0.0,0.0,0.0,0.0,0.0,0.0,0.0,0.0
1703250046919291848,14071,1702029030727616548,base_link,-0.47210122231564927,-0.49486093595726266,-0.4000648643927176,0.6100665490174072,0.0,0.0,0.0,0.0,0.0,0.0,0.0,0.0,0.0,0.795229434967041,-0.3899425268173218,0.07191068679094315,0.0,0.0,0.0,0.0,0.0,0.0,0.0,0.0,0.0,9.389338355735944,-2.1868130681823574,1.760163016976758,0.0,0.0,0.0,0.0,0.0,0.0,0.0,0.0,0.0
1703250046921733525,14072,1702029030730724573,base_link,-0.47110091462742526,-0.49671867571250006,-0.3978749314517435,0.6107618393104584,0.0,0.0,0.0,0.0,0.0,0.0,0.0,0.0,0.0,0.795229434967041,-0.3899425268173218,0.07191068679094315,0.0,0.0,0.0,0.0,0.0,0.0,0.0,0.0,0.0,9.389338355735944,-2.1868130681823574,1.760163016976758,0.0,0.0,0.0,0.0,0.0,0.0,0.0,0.0,0.0
1703250046925086273,14073,1702029030734084367,base_link,-0.47110091462742526,-0.49671867571250006,-0.3978749314517435,0.6107618393104584,0.0,0.0,0.0,0.0,0.0,0.0,0.0,0.0,0.0,0.7291914820671082,-0.43680307269096375,0.06870879232883453,0.0,0.0,0.0,0.0,0.0,0.0,0.0,0.0,0.0,9.448510090174409,-2.20723522706335,1.3761430624331983,0.0,0.0,0.0,0.0,0.0,0.0,0.0,0.0,0.0
1703250046928098662,14074,1702029030737279415,base_link,-0.4702864609879205,-0.4986277012393776,-0.3956693179468053,0.611266595687758,0.0,0.0,0.0,0.0,0.0,0.0,0.0,0.0,0.0,0.7291914820671082,-0.43680307269096375,0.06870879232883453,0.0,0.0,0.0,0.0,0.0,0.0,0.0,0.0,0.0,9.448510090174409,-2.20723522706335,1.3761430624331983,0.0,0.0,0.0,0.0,0.0,0.0,0.0,0.0,0.0
1703250046931905060,14075,1702029030740702390,base_link,-0.4702864609879205,-0.4986277012393776,-0.3956693179468053,0.611266595687758,0.0,0.0,0.0,0.0,0.0,0.0,0.0,0.0,0.0,0.6940456628799438,-0.4975104331970215,0.07829028367996216,0.0,0.0,0.0,0.0,0.0,0.0,0.0,0.0,0.0,9.528609243827475,-2.153239716151278,0.7804899763830238,0.0,0.0,0.0,0.0,0.0,0.0,0.0,0.0,0.0
1703250046935552069,14076,1702029030743947744,base_link,-0.4695933958162837,-0.5005385655742906,-0.39349044317726883,0.6116440616132224,0.0,0.0,0.0,0.0,0.0,0.0,0.0,0.0,0.0,0.6940456628799438,-0.4975104331970215,0.07829028367996216,0.0,0.0,0.0,0.0,0.0,0.0,0.0,0.0,0.0,9.528609243827475,-2.153239716151278,0.7804899763830238,0.0,0.0,0.0,0.0,0.0,0.0,0.0,0.0,0.0
1703250046938584992,14077,1702029030747378587,base_link,-0.4695933958162837,-0.5005385655742906,-0.39349044317726883,0.6116440616132224,0.0,0.0,0.0,0.0,0.0,0.0,0.0,0.0,0.0,0.6951180696487427,-0.5411726832389832,0.045261286199092865,0.0,0.0,0.0,0.0,0.0,0.0,0.0,0.0,0.0,9.518180069160325,-2.2907934534495875,0.44329846003758355,0.0,0.0,0.0,0.0,0.0,0.0,0.0,0.0,0.0
1703250046942565866,14078,1702029030750833034,base_link,-0.4688931741555025,-0.5025300411279565,-0.39138172246937963,0.6119012145037902,0.0,0.0,0.0,0.0,0.0,0.0,0.0,0.0,0.0,0.6951180696487427,-0.5411726832389832,0.045261286199092865,0.0,0.0,0.0,0.0,0.0,0.0,0.0,0.0,0.0,9.518180069160325,-2.2907934534495875,0.44329846003758355,0.0,0.0,0.0,0.0,0.0,0.0,0.0,0.0,0.0
1703250046945582445,14079,1702029030754204511,base_link,-0.4688931741555025,-0.5025300411279565,-0.39138172246937963,0.6119012145037902,0.0,0.0,0.0,0.0,0.0,0.0,0.0,0.0,0.0,0.6759496927261353,-0.4644603431224823,-0.0037465952336788177,0.0,0.0,0.0,0.0,0.0,0.0,0.0,0.0,0.0,9.512170319878887,-2.320005254723066,0.419751621405544,0.0,0.0,0.0,0.0,0.0,0.0,0.0,0.0,0.0
1703250046947810044,14080,1702029030757188320,base_link,-0.4679673164502316,-0.5044702769419139,-0.38947315063199106,0.6122311616973672,0.0,0.0,0.0,0.0,0.0,0.0,0.0,0.0,0.0,0.6759496927261353,-0.4644603431224823,-0.0037465952336788177,0.0,0.0,0.0,0.0,0.0,0.0,0.0,0.0,0.0,9.512170319878887,-2.320005254723066,0.419751621405544,0.0,0.0,0.0,0.0,0.0,0.0,0.0,0.0,0.0
1703250046955749440,14081,1702029030764057874,base_link,-0.4679673164502316,-0.5044702769419139,-0.38947315063199106,0.6122311616973672,0.0,0.0,0.0,0.0,0.0,0.0,0.0,0.0,0.0,0.6898043155670166,-0.4442073106765747,-0.0506243035197258,0.0,0.0,0.0,0.0,0.0,0.0,0.0,0.0,0.0,9.516611413934864,-2.3239236603548474,0.2710830444856283,0.0,0.0,0.0,0.0,0.0,0.0,0.0,0.0,0.0
1703250046955765295,14082,1702029030764421939,base_link,-0.46693674046269557,-0.5064363188339369,-0.38771319158521483,0.6125118908583007,0.0,0.0,0.0,0.0,0.0,0.0,0.0,0.0,0.0,0.6898043155670166,-0.4442073106765747,-0.0506243035197258,0.0,0.0,0.0,0.0,0.0,0.0,0.0,0.0,0.0,9.516611413934864,-2.3239236603548474,0.2710830444856283,0.0,0.0,0.0,0.0,0.0,0.0,0.0,0.0,0.0
1703250046961939752,14083,1702029030770685434,base_link,-0.46693674046269557,-0.5064363188339369,-0.38771319158521483,0.6125118908583007,0.0,0.0,0.0,0.0,0.0,0.0,0.0,0.0,0.0,0.700462281703949,-0.4207580089569092,-0.12413375079631805,0.0,0.0,0.0,0.0,0.0,0.0,0.0,0.0,0.0,9.586087761183473,-2.0361384353424516,-0.032583845838404756,0.0,0.0,0.0,0.0,0.0,0.0,0.0,0.0,0.0
1703250046965935224,14084,1702029030774153470,base_link,0.46570955599594827,0.5085008874210714,0.3861216170666037,-0.6127410168904237,0.0,0.0,0.0,0.0,0.0,0.0,0.0,0.0,0.0,0.700462281703949,-0.4207580089569092,-0.12413375079631805,0.0,0.0,0.0,0.0,0.0,0.0,0.0,0.0,0.0,9.586087761183473,-2.0361384353424516,-0.032583845838404756,0.0,0.0,0.0,0.0,0.0,0.0,0.0,0.0,0.0
1703250046968954876,14085,1702029030777603864,base_link,0.46570955599594827,0.5085008874210714,0.3861216170666037,-0.6127410168904237,0.0,0.0,0.0,0.0,0.0,0.0,0.0,0.0,0.0,0.6855528354644775,-0.40582987666130066,-0.19657820463180542,0.0,0.0,0.0,0.0,0.0,0.0,0.0,0.0,0.0,9.560026293998837,-2.1551117247476657,-0.037292249945814294,0.0,0.0,0.0,0.0,0.0,0.0,0.0,0.0,0.0
1703250046971913553,14086,1702029030780835151,base_link,0.46438072824140825,0.510618067936416,0.38471274555659796,-0.6128750536130227,0.0,0.0,0.0,0.0,0.0,0.0,0.0,0.0,0.0,0.6855528354644775,-0.40582987666130066,-0.19657820463180542,0.0,0.0,0.0,0.0,0.0,0.0,0.0,0.0,0.0,9.560026293998837,-2.1551117247476657,-0.037292249945814294,0.0,0.0,0.0,0.0,0.0,0.0,0.0,0.0,0.0
1703250046975665821,14087,1702029030784277200,base_link,0.46438072824140825,0.510618067936416,0.38471274555659796,-0.6128750536130227,0.0,0.0,0.0,0.0,0.0,0.0,0.0,0.0,0.0,0.6812953948974609,-0.3994233310222626,-0.23280371725559235,0.0,0.0,0.0,0.0,0.0,0.0,0.0,0.0,0.0,9.574854352827213,-2.083955501117984,0.13890137330450483,0.0,0.0,0.0,0.0,0.0,0.0,0.0,0.0,0.0
1703250046978823419,14088,1702029030787495851,base_link,0.4629852794819457,0.5127555581580362,0.38338746958252967,-0.612976685305543,0.0,0.0,0.0,0.0,0.0,0.0,0.0,0.0,0.0,0.6812953948974609,-0.3994233310222626,-0.23280371725559235,0.0,0.0,0.0,0.0,0.0,0.0,0.0,0.0,0.0,9.574854352827213,-2.083955501117984,0.13890137330450483,0.0,0.0,0.0,0.0,0.0,0.0,0.0,0.0,0.0
1703250046982627023,14089,1702029030790930271,base_link,0.4629852794819457,0.5127555581580362,0.38338746958252967,-0.612976685305543,0.0,0.0,0.0,0.0,0.0,0.0,0.0,0.0,0.0,0.70579993724823,-0.3589286506175995,-0.2509198784828186,0.0,0.0,0.0,0.0,0.0,0.0,0.0,0.0,0.0,9.571501914061072,-2.1019277590715615,0.09083394062603985,0.0,0.0,0.0,0.0,0.0,0.0,0.0,0.0,0.0
1703250046985844410,14090,1702029030794171810,base_link,0.4614098980271246,0.5148521911466001,0.38209367028236896,-0.6132149332854603,0.0,0.0,0.0,0.0,0.0,0.0,0.0,0.0,0.0,0.70579993724823,-0.3589286506175995,-0.2509198784828186,0.0,0.0,0.0,0.0,0.0,0.0,0.0,0.0,0.0,9.571501914061072,-2.1019277590715615,0.09083394062603985,0.0,0.0,0.0,0.0,0.0,0.0,0.0,0.0,0.0
1703250046988464334,14091,1702029030797530174,base_link,0.4614098980271246,0.5148521911466001,0.38209367028236896,-0.6132149332854603,0.0,0.0,0.0,0.0,0.0,0.0,0.0,0.0,0.0,0.7718509435653687,-0.2949998676776886,-0.24453534185886383,0.0,0.0,0.0,0.0,0.0,0.0,0.0,0.0,0.0,9.546024888356873,-2.2091740181746213,0.18154610514507183,0.0,0.0,0.0,0.0,0.0,0.0,0.0,0.0,0.0
1703250046991855358,14092,1702029030800805330,base_link,0.4596233148592443,0.5168961818155619,0.3807601518158139,-0.6136664015990219,0.0,0.0,0.0,0.0,0.0,0.0,0.0,0.0,0.0,0.7718509435653687,-0.2949998676776886,-0.24453534185886383,0.0,0.0,0.0,0.0,0.0,0.0,0.0,0.0,0.0,9.546024888356873,-2.2091740181746213,0.18154610514507183,0.0,0.0,0.0,0.0,0.0,0.0,0.0,0.0,0.0
1703250046995375177,14093,1702029030804283142,base_link,0.4596233148592443,0.5168961818155619,0.3807601518158139,-0.6136664015990219,0.0,0.0,0.0,0.0,0.0,0.0,0.0,0.0,0.0,0.845359742641449,-0.24279047548770905,-0.2509344220161438,0.0,0.0,0.0,0.0,0.0,0.0,0.0,0.0,0.0,9.526134252313533,-2.2684836605949457,0.3830771312838703,0.0,0.0,0.0,0.0,0.0,0.0,0.0,0.0,0.0
1703250046998931806,14094,1702029030807502985,base_link,0.45760315002620067,0.51894026187327,0.37938393126510084,-0.6143030151243258,0.0,0.0,0.0,0.0,0.0,0.0,0.0,0.0,0.0,0.845359742641449,-0.24279047548770905,-0.2509344220161438,0.0,0.0,0.0,0.0,0.0,0.0,0.0,0.0,0.0,9.526134252313533,-2.2684836605949457,0.3830771312838703,0.0,0.0,0.0,0.0,0.0,0.0,0.0,0.0,0.0
1703250047002069079,14095,1702029030810934543,base_link,0.45760315002620067,0.51894026187327,0.37938393126510084,-0.6143030151243258,0.0,0.0,0.0,0.0,0.0,0.0,0.0,0.0,0.0,0.9082167744636536,-0.2289312183856964,-0.2520076334476471,0.0,0.0,0.0,0.0,0.0,0.0,0.0,0.0,0.0,9.503041786636466,-2.3073274147578577,0.6390907623710935,0.0,0.0,0.0,0.0,0.0,0.0,0.0,0.0,0.0
1703250047005548109,14096,1702029030814169645,base_link,0.45545330268127704,0.5210680385945425,0.37789413378636366,-0.6150174077876229,0.0,0.0,0.0,0.0,0.0,0.0,0.0,0.0,0.0,0.9082167744636536,-0.2289312183856964,-0.2520076334476471,0.0,0.0,0.0,0.0,0.0,0.0,0.0,0.0,0.0,9.503041786636466,-2.3073274147578577,0.6390907623710935,0.0,0.0,0.0,0.0,0.0,0.0,0.0,0.0,0.0
1703250047008887166,14097,1702029030817592382,base_link,0.45545330268127704,0.5210680385945425,0.37789413378636366,-0.6150174077876229,0.0,0.0,0.0,0.0,0.0,0.0,0.0,0.0,0.0,0.9433772563934326,-0.28324782848358154,-0.2509506642818451,0.0,0.0,0.0,0.0,0.0,0.0,0.0,0.0,0.0,9.491965156533128,-2.275562211961086,0.8743077757036267,0.0,0.0,0.0,0.0,0.0,0.0,0.0,0.0,0.0
1703250047011990494,14098,1702029030820828676,base_link,0.4532909605798486,0.5233702223567378,0.37624964838383185,-0.6156680253983474,0.0,0.0,0.0,0.0,0.0,0.0,0.0,0.0,0.0,0.9433772563934326,-0.28324782848358154,-0.2509506642818451,0.0,0.0,0.0,0.0,0.0,0.0,0.0,0.0,0.0,9.491965156533128,-2.275562211961086,0.8743077757036267,0.0,0.0,0.0,0.0,0.0,0.0,0.0,0.0,0.0
1703250047015788300,14099,1702029030824282884,base_link,0.4532909605798486,0.5233702223567378,0.37624964838383185,-0.6156680253983474,0.0,0.0,0.0,0.0,0.0,0.0,0.0,0.0,0.0,0.9796030521392822,-0.33862796425819397,-0.2605467140674591,0.0,0.0,0.0,0.0,0.0,0.0,0.0,0.0,0.0,9.505658318802872,-2.2585818221388667,0.7624093906016863,0.0,0.0,0.0,0.0,0.0,0.0,0.0,0.0,0.0
1703250047019159696,14100,1702029030827501773,base_link,0.4511028933681273,0.525832054787896,0.3744639832476774,-0.6162658152150955,0.0,0.0,0.0,0.0,0.0,0.0,0.0,0.0,0.0,0.9796030521392822,-0.33862796425819397,-0.2605467140674591,0.0,0.0,0.0,0.0,0.0,0.0,0.0,0.0,0.0,9.505658318802872,-2.2585818221388667,0.7624093906016863,0.0,0.0,0.0,0.0,0.0,0.0,0.0,0.0,0.0
1703250047022723937,14101,1702029030830935716,base_link,0.4511028933681273,0.525832054787896,0.3744639832476774,-0.6162658152150955,0.0,0.0,0.0,0.0,0.0,0.0,0.0,0.0,0.0,1.0286122560501099,-0.3865499198436737,-0.2637515068054199,0.0,0.0,0.0,0.0,0.0,0.0,0.0,0.0,0.0,9.515848105758947,-2.197536349038411,0.8120768576796222,0.0,0.0,0.0,0.0,0.0,0.0,0.0,0.0,0.0
1703250047025800374,14102,1702029030834159851,base_link,0.4488322996029903,0.528455712346435,0.372499964530165,-0.6168694378444594,0.0,0.0,0.0,0.0,0.0,0.0,0.0,0.0,0.0,1.0286122560501099,-0.3865499198436737,-0.2637515068054199,0.0,0.0,0.0,0.0,0.0,0.0,0.0,0.0,0.0,9.515848105758947,-2.197536349038411,0.8120768576796222,0.0,0.0,0.0,0.0,0.0,0.0,0.0,0.0,0.0
1703250047032564330,14103,1702029030840935468,base_link,0.4488322996029903,0.528455712346435,0.372499964530165,-0.6168694378444594,0.0,0.0,0.0,0.0,0.0,0.0,0.0,0.0,0.0,1.0925359725952148,-0.41103532910346985,-0.25204309821128845,0.0,0.0,0.0,0.0,0.0,0.0,0.0,0.0,0.0,9.542454895587369,-2.1740252254625716,0.5051424400434791,0.0,0.0,0.0,0.0,0.0,0.0,0.0,0.0,0.0
1703250047032578648,14104,1702029030841270923,base_link,0.4464590027802141,0.5311603631684199,0.3703779261205171,-0.6175461272471504,0.0,0.0,0.0,0.0,0.0,0.0,0.0,0.0,0.0,1.0925359725952148,-0.41103532910346985,-0.25204309821128845,0.0,0.0,0.0,0.0,0.0,0.0,0.0,0.0,0.0,9.542454895587369,-2.1740252254625716,0.5051424400434791,0.0,0.0,0.0,0.0,0.0,0.0,0.0,0.0,0.0
1703250047038978078,14105,1702029030847608327,base_link,0.4464590027802141,0.5311603631684199,0.3703779261205171,-0.6175461272471504,0.0,0.0,0.0,0.0,0.0,0.0,0.0,0.0,0.0,1.1596561670303345,-0.40249767899513245,-0.25631406903266907,0.0,0.0,0.0,0.0,0.0,0.0,0.0,0.0,0.0,9.564177887707709,-2.092825867126753,0.4319504857828806,0.0,0.0,0.0,0.0,0.0,0.0,0.0,0.0,0.0
1703250047042223472,14106,1702029030850839138,base_link,0.4439524513199769,0.5339145165887822,0.3681762889821705,-0.6182942100441081,0.0,0.0,0.0,0.0,0.0,0.0,0.0,0.0,0.0,1.1596561670303345,-0.40249767899513245,-0.25631406903266907,0.0,0.0,0.0,0.0,0.0,0.0,0.0,0.0,0.0,9.564177887707709,-2.092825867126753,0.4319504857828806,0.0,0.0,0.0,0.0,0.0,0.0,0.0,0.0,0.0
1703250047045610933,14107,1702029030854274272,base_link,0.4439524513199769,0.5339145165887822,0.3681762889821705,-0.6182942100441081,0.0,0.0,0.0,0.0,0.0,0.0,0.0,0.0,0.0,1.173513412475586,-0.41526517271995544,-0.2616504728794098,0.0,0.0,0.0,0.0,0.0,0.0,0.0,0.0,0.0,9.591359029938214,-1.9911410536231577,0.2849372973114615,0.0,0.0,0.0,0.0,0.0,0.0,0.0,0.0,0.0
1703250047048343937,14108,1702029030857424736,base_link,0.44143434711117563,0.5367306404362331,0.3659553773551334,-0.6189770582116134,0.0,0.0,0.0,0.0,0.0,0.0,0.0,0.0,0.0,1.173513412475586,-0.41526517271995544,-0.2616504728794098,0.0,0.0,0.0,0.0,0.0,0.0,0.0,0.0,0.0,9.591359029938214,-1.9911410536231577,0.2849372973114615,0.0,0.0,0.0,0.0,0.0,0.0,0.0,0.0,0.0
1703250047052128263,14109,1702029030860940694,base_link,0.44143434711117563,0.5367306404362331,0.3659553773551334,-0.6189770582116134,0.0,0.0,0.0,0.0,0.0,0.0,0.0,0.0,0.0,1.1298454999923706,-0.4599892199039459,-0.290422648191452,0.0,0.0,0.0,0.0,0.0,0.0,0.0,0.0,0.0,9.59006749835231,-2.0044408526572277,0.22983090576652143,0.0,0.0,0.0,0.0,0.0,0.0,0.0,0.0,0.0
1703250047055777018,14110,1702029030864191770,base_link,0.439053259093409,0.5396140543672031,0.3638087147983213,-0.6194288716597239,0.0,0.0,0.0,0.0,0.0,0.0,0.0,0.0,0.0,1.1298454999923706,-0.4599892199039459,-0.290422648191452,0.0,0.0,0.0,0.0,0.0,0.0,0.0,0.0,0.0,9.59006749835231,-2.0044408526572277,0.22983090576652143,0.0,0.0,0.0,0.0,0.0,0.0,0.0,0.0,0.0
1703250047059112933,14111,1702029030867609500,base_link,0.439053259093409,0.5396140543672031,0.3638087147983213,-0.6194288716597239,0.0,0.0,0.0,0.0,0.0,0.0,0.0,0.0,0.0,1.0531529188156128,-0.5142987966537476,-0.3159985840320587,0.0,0.0,0.0,0.0,0.0,0.0,0.0,0.0,0.0,9.61731436799792,-1.8807939758879524,0.09938997617644639,0.0,0.0,0.0,0.0,0.0,0.0,0.0,0.0,0.0
1703250047062139220,14112,1702029030870832681,base_link,0.43683018848677635,0.5425559654342383,0.3617643546904535,-0.6196280839937205,0.0,0.0,0.0,0.0,0.0,0.0,0.0,0.0,0.0,1.0531529188156128,-0.5142987966537476,-0.3159985840320587,0.0,0.0,0.0,0.0,0.0,0.0,0.0,0.0,0.0,9.61731436799792,-1.8807939758879524,0.09938997617644639,0.0,0.0,0.0,0.0,0.0,0.0,0.0,0.0,0.0
1703250047065850626,14113,1702029030874274969,base_link,0.43683018848677635,0.5425559654342383,0.3617643546904535,-0.6196280839937205,0.0,0.0,0.0,0.0,0.0,0.0,0.0,0.0,0.0,0.9956337809562683,-0.5483666658401489,-0.3522268831729889,0.0,0.0,0.0,0.0,0.0,0.0,0.0,0.0,0.0,9.631187323589566,-1.8103969086984215,0.05190155010084065,0.0,0.0,0.0,0.0,0.0,0.0,0.0,0.0,0.0
1703250047068681904,14114,1702029030877482414,base_link,0.4346720050879206,0.5455247169765806,0.3598575125378902,-0.619649579867937,0.0,0.0,0.0,0.0,0.0,0.0,0.0,0.0,0.0,0.9956337809562683,-0.5483666658401489,-0.3522268831729889,0.0,0.0,0.0,0.0,0.0,0.0,0.0,0.0,0.0,9.631187323589566,-1.8103969086984215,0.05190155010084065,0.0,0.0,0.0,0.0,0.0,0.0,0.0,0.0,0.0
1703250047072107291,14115,1702029030880927085,base_link,0.4346720050879206,0.5455247169765806,0.3598575125378902,-0.619649579867937,0.0,0.0,0.0,0.0,0.0,0.0,0.0,0.0,0.0,0.9604842066764832,-0.5504759550094604,-0.37460654973983765,0.0,0.0,0.0,0.0,0.0,0.0,0.0,0.0,0.0,9.620885226872101,-1.8646574060144672,-0.0402518266614223,0.0,0.0,0.0,0.0,0.0,0.0,0.0,0.0,0.0
1703250047075812831,14116,1702029030884179115,base_link,0.43250246050160873,0.5484668739056662,0.35804130074352075,-0.6196225761300893,0.0,0.0,0.0,0.0,0.0,0.0,0.0,0.0,0.0,0.9604842066764832,-0.5504759550094604,-0.37460654973983765,0.0,0.0,0.0,0.0,0.0,0.0,0.0,0.0,0.0,9.620885226872101,-1.8646574060144672,-0.0402518266614223,0.0,0.0,0.0,0.0,0.0,0.0,0.0,0.0,0.0
1703250047078914132,14117,1702029030887599945,base_link,0.43250246050160873,0.5484668739056662,0.35804130074352075,-0.6196225761300893,0.0,0.0,0.0,0.0,0.0,0.0,0.0,0.0,0.0,0.9583576917648315,-0.5153014659881592,-0.3873988091945648,0.0,0.0,0.0,0.0,0.0,0.0,0.0,0.0,0.0,9.633467026830765,-1.7937757759464685,-0.13668031530581945,0.0,0.0,0.0,0.0,0.0,0.0,0.0,0.0,0.0
1703250047082164835,14118,1702029030890830516,base_link,0.43025634920519223,0.5513305566754667,0.3563091567352726,-0.619643345862068,0.0,0.0,0.0,0.0,0.0,0.0,0.0,0.0,0.0,0.9583576917648315,-0.5153014659881592,-0.3873988091945648,0.0,0.0,0.0,0.0,0.0,0.0,0.0,0.0,0.0,9.633467026830765,-1.7937757759464685,-0.13668031530581945,0.0,0.0,0.0,0.0,0.0,0.0,0.0,0.0,0.0
1703250047085668729,14119,1702029030894264936,base_link,0.43025634920519223,0.5513305566754667,0.3563091567352726,-0.619643345862068,0.0,0.0,0.0,0.0,0.0,0.0,0.0,0.0,0.0,0.9615575075149536,-0.46201860904693604,-0.4001910388469696,0.0,0.0,0.0,0.0,0.0,0.0,0.0,0.0,0.0,9.647250457334547,-1.7104596253208857,-0.21186430469879391,0.0,0.0,0.0,0.0,0.0,0.0,0.0,0.0,0.0
1703250047088898059,14120,1702029030897498130,base_link,0.42791824684434954,0.5540754684528362,0.3546636264693358,-0.6197580667777127,0.0,0.0,0.0,0.0,0.0,0.0,0.0,0.0,0.0,0.9615575075149536,-0.46201860904693604,-0.4001910388469696,0.0,0.0,0.0,0.0,0.0,0.0,0.0,0.0,0.0,9.647250457334547,-1.7104596253208857,-0.21186430469879391,0.0,0.0,0.0,0.0,0.0,0.0,0.0,0.0,0.0
1703250047091991817,14121,1702029030900939702,base_link,0.42791824684434954,0.5540754684528362,0.3546636264693358,-0.6197580667777127,0.0,0.0,0.0,0.0,0.0,0.0,0.0,0.0,0.0,0.9732798933982849,-0.4108678698539734,-0.38741689920425415,0.0,0.0,0.0,0.0,0.0,0.0,0.0,0.0,0.0,9.65954775892912,-1.6242302362420213,-0.30824216558508716,0.0,0.0,0.0,0.0,0.0,0.0,0.0,0.0,0.0
1703250047095447657,14122,1702029030904185533,base_link,0.4255067655121527,0.556716135625406,0.3530147755087257,-0.6199933105366737,0.0,0.0,0.0,0.0,0.0,0.0,0.0,0.0,0.0,0.9732798933982849,-0.4108678698539734,-0.38741689920425415,0.0,0.0,0.0,0.0,0.0,0.0,0.0,0.0,0.0,9.65954775892912,-1.6242302362420213,-0.30824216558508716,0.0,0.0,0.0,0.0,0.0,0.0,0.0,0.0,0.0
1703250047099147889,14123,1702029030907658100,base_link,0.4255067655121527,0.556716135625406,0.3530147755087257,-0.6199933105366737,0.0,0.0,0.0,0.0,0.0,0.0,0.0,0.0,0.0,0.9967207312583923,-0.3820887804031372,-0.37890392541885376,0.0,0.0,0.0,0.0,0.0,0.0,0.0,0.0,0.0,9.67420559082502,-1.5581914013348894,-0.1475999432789524,0.0,0.0,0.0,0.0,0.0,0.0,0.0,0.0,0.0
1703250047102236479,14124,1702029030910965442,base_link,0.42304837222606106,0.5592994872745044,0.35134585497447457,-0.620298515622609,0.0,0.0,0.0,0.0,0.0,0.0,0.0,0.0,0.0,0.9967207312583923,-0.3820887804031372,-0.37890392541885376,0.0,0.0,0.0,0.0,0.0,0.0,0.0,0.0,0.0,9.67420559082502,-1.5581914013348894,-0.1475999432789524,0.0,0.0,0.0,0.0,0.0,0.0,0.0,0.0,0.0
1703250047105308305,14125,1702029030914327144,base_link,0.42304837222606106,0.5592994872745044,0.35134585497447457,-0.620298515622609,0.0,0.0,0.0,0.0,0.0,0.0,0.0,0.0,0.0,0.9977912902832031,-0.36396312713623047,-0.3661298155784607,0.0,0.0,0.0,0.0,0.0,0.0,0.0,0.0,0.0,9.68286313379092,-1.5067874617659653,0.10841161071368006,0.0,0.0,0.0,0.0,0.0,0.0,0.0,0.0,0.0
1703250047108843700,14126,1702029030917496919,base_link,0.42057238109949907,0.5618442769507661,0.3496362200623362,-0.620648366093467,0.0,0.0,0.0,0.0,0.0,0.0,0.0,0.0,0.0,0.9977912902832031,-0.36396312713623047,-0.3661298155784607,0.0,0.0,0.0,0.0,0.0,0.0,0.0,0.0,0.0,9.68286313379092,-1.5067874617659653,0.10841161071368006,0.0,0.0,0.0,0.0,0.0,0.0,0.0,0.0,0.0
1703250047115651240,14127,1702029030924280881,base_link,0.42057238109949907,0.5618442769507661,0.3496362200623362,-0.620648366093467,0.0,0.0,0.0,0.0,0.0,0.0,0.0,0.0,0.0,1.0798225402832031,-0.3788604736328125,-0.3799877166748047,0.0,0.0,0.0,0.0,0.0,0.0,0.0,0.0,0.0,9.661701757245972,-1.6373091288960198,0.1036241789539876,0.0,0.0,0.0,0.0,0.0,0.0,0.0,0.0,0.0
1703250047118855495,14128,1702029030927496433,base_link,0.41789571544291626,0.5645439509739041,0.3478179846346736,-0.6210281378471519,0.0,0.0,0.0,0.0,0.0,0.0,0.0,0.0,0.0,1.0798225402832031,-0.3788604736328125,-0.3799877166748047,0.0,0.0,0.0,0.0,0.0,0.0,0.0,0.0,0.0,9.661701757245972,-1.6373091288960198,0.1036241789539876,0.0,0.0,0.0,0.0,0.0,0.0,0.0,0.0,0.0
1703250047122565505,14129,1702029030930929183,base_link,0.41789571544291626,0.5645439509739041,0.3478179846346736,-0.6210281378471519,0.0,0.0,0.0,0.0,0.0,0.0,0.0,0.0,0.0,1.0968725681304932,-0.3767129182815552,-0.4055638909339905,0.0,0.0,0.0,0.0,0.0,0.0,0.0,0.0,0.0,9.65226034847079,-1.6948873431802753,0.03502940573098792,0.0,0.0,0.0,0.0,0.0,0.0,0.0,0.0,0.0
1703250047125898067,14130,1702029030934165716,base_link,0.41511211357588895,0.5672759989539291,0.34599373940013267,-0.621424336882048,0.0,0.0,0.0,0.0,0.0,0.0,0.0,0.0,0.0,1.0968725681304932,-0.3767129182815552,-0.4055638909339905,0.0,0.0,0.0,0.0,0.0,0.0,0.0,0.0,0.0,9.65226034847079,-1.6948873431802753,0.03502940573098792,0.0,0.0,0.0,0.0,0.0,0.0,0.0,0.0,0.0
1703250047128891317,14131,1702029030937603235,base_link,0.41511211357588895,0.5672759989539291,0.34599373940013267,-0.621424336882048,0.0,0.0,0.0,0.0,0.0,0.0,0.0,0.0,0.0,1.1512073278427124,-0.37669575214385986,-0.4236835837364197,0.0,0.0,0.0,0.0,0.0,0.0,0.0,0.0,0.0,9.697517053260443,-1.4118392803157065,-0.06980578973511362,0.0,0.0,0.0,0.0,0.0,0.0,0.0,0.0,0.0
1703250047131810321,14132,1702029030940833806,base_link,0.4121764599050519,0.5700712466172657,0.3441328916957262,-0.6218535941308962,0.0,0.0,0.0,0.0,0.0,0.0,0.0,0.0,0.0,1.1512073278427124,-0.37669575214385986,-0.4236835837364197,0.0,0.0,0.0,0.0,0.0,0.0,0.0,0.0,0.0,9.697517053260443,-1.4118392803157065,-0.06980578973511362,0.0,0.0,0.0,0.0,0.0,0.0,0.0,0.0,0.0
1703250047135878082,14133,1702029030944280862,base_link,0.4121764599050519,0.5700712466172657,0.3441328916957262,-0.6218535941308962,0.0,0.0,0.0,0.0,0.0,0.0,0.0,0.0,0.0,1.1576050519943237,-0.364960640668869,-0.4386076331138611,0.0,0.0,0.0,0.0,0.0,0.0,0.0,0.0,0.0,9.689845566829856,-1.4649581152440945,0.02811781585170354,0.0,0.0,0.0,0.0,0.0,0.0,0.0,0.0,0.0
1703250047139074933,14134,1702029030947495222,base_link,0.40922613478599795,0.5728537406541105,0.342288048747126,-0.6222631711033447,0.0,0.0,0.0,0.0,0.0,0.0,0.0,0.0,0.0,1.1576050519943237,-0.364960640668869,-0.4386076331138611,0.0,0.0,0.0,0.0,0.0,0.0,0.0,0.0,0.0,9.689845566829856,-1.4649581152440945,0.02811781585170354,0.0,0.0,0.0,0.0,0.0,0.0,0.0,0.0,0.0
1703250047142275137,14135,1702029030950929164,base_link,0.40922613478599795,0.5728537406541105,0.342288048747126,-0.6222631711033447,0.0,0.0,0.0,0.0,0.0,0.0,0.0,0.0,0.0,1.149088978767395,-0.3926398456096649,-0.44714006781578064,0.0,0.0,0.0,0.0,0.0,0.0,0.0,0.0,0.0,9.713750546458611,-1.2972489811953212,-0.013978625209354167,0.0,0.0,0.0,0.0,0.0,0.0,0.0,0.0,0.0
1703250047145580249,14136,1702029030954171419,base_link,0.40629470214155694,0.5756967930188667,0.3404395622966879,-0.6225742702222242,0.0,0.0,0.0,0.0,0.0,0.0,0.0,0.0,0.0,1.149088978767395,-0.3926398456096649,-0.44714006781578064,0.0,0.0,0.0,0.0,0.0,0.0,0.0,0.0,0.0,9.713750546458611,-1.2972489811953212,-0.013978625209354167,0.0,0.0,0.0,0.0,0.0,0.0,0.0,0.0,0.0
1703250047148878098,14137,1702029030957600355,base_link,0.40629470214155694,0.5756967930188667,0.3404395622966879,-0.6225742702222242,0.0,0.0,0.0,0.0,0.0,0.0,0.0,0.0,0.0,1.1341806650161743,-0.42031797766685486,-0.46206408739089966,0.0,0.0,0.0,0.0,0.0,0.0,0.0,0.0,0.0,9.709405123233108,-1.3193710496417124,-0.16343863160842678,0.0,0.0,0.0,0.0,0.0,0.0,0.0,0.0,0.0
1703250047151944826,14138,1702029030960839986,base_link,0.40339360364519194,0.5785866593812655,0.3386088812130945,-0.6227801407300891,0.0,0.0,0.0,0.0,0.0,0.0,0.0,0.0,0.0,1.1341806650161743,-0.42031797766685486,-0.46206408739089966,0.0,0.0,0.0,0.0,0.0,0.0,0.0,0.0,0.0,9.709405123233108,-1.3193710496417124,-0.16343863160842678,0.0,0.0,0.0,0.0,0.0,0.0,0.0,0.0,0.0
1703250047155620960,14139,1702029030964275360,base_link,0.40339360364519194,0.5785866593812655,0.3386088812130945,-0.6227801407300891,0.0,0.0,0.0,0.0,0.0,0.0,0.0,0.0,0.0,1.1128803491592407,-0.4405384659767151,-0.4695311188697815,0.0,0.0,0.0,0.0,0.0,0.0,0.0,0.0,0.0,9.728112184865745,-1.154347693760402,-0.2670481615302531,0.0,0.0,0.0,0.0,0.0,0.0,0.0,0.0,0.0
1703250047159074495,14140,1702029030967478752,base_link,0.4005025477639593,0.5815289875275557,0.3367718358211992,-0.6229016587691616,0.0,0.0,0.0,0.0,0.0,0.0,0.0,0.0,0.0,1.1128803491592407,-0.4405384659767151,-0.4695311188697815,0.0,0.0,0.0,0.0,0.0,0.0,0.0,0.0,0.0,9.728112184865745,-1.154347693760402,-0.2670481615302531,0.0,0.0,0.0,0.0,0.0,0.0,0.0,0.0,0.0
1703250047162205412,14141,1702029030970929861,base_link,0.4005025477639593,0.5815289875275557,0.3367718358211992,-0.6229016587691616,0.0,0.0,0.0,0.0,0.0,0.0,0.0,0.0,0.0,1.0841227769851685,-0.45756256580352783,-0.46208444237709045,0.0,0.0,0.0,0.0,0.0,0.0,0.0,0.0,0.0,9.728329990640766,-1.068282536528516,-0.5082991396290456,0.0,0.0,0.0,0.0,0.0,0.0,0.0,0.0,0.0
1703250047165514785,14142,1702029030974075317,base_link,0.39771555063936653,0.584428791041442,0.33495825838466053,-0.6229512774859516,0.0,0.0,0.0,0.0,0.0,0.0,0.0,0.0,0.0,1.0841227769851685,-0.45756256580352783,-0.46208444237709045,0.0,0.0,0.0,0.0,0.0,0.0,0.0,0.0,0.0,9.728329990640766,-1.068282536528516,-0.5082991396290456,0.0,0.0,0.0,0.0,0.0,0.0,0.0,0.0,0.0
1703250047168389227,14143,1702029030977428913,base_link,0.39771555063936653,0.584428791041442,0.33495825838466053,-0.6229512774859516,0.0,0.0,0.0,0.0,0.0,0.0,0.0,0.0,0.0,1.0393861532211304,-0.46286898851394653,-0.43865838646888733,0.0,0.0,0.0,0.0,0.0,0.0,0.0,0.0,0.0,9.719303164568604,-0.9488660209889873,-0.8214616664332334,0.0,0.0,0.0,0.0,0.0,0.0,0.0,0.0,0.0
1703250047171340919,14144,1702029030980488300,base_link,0.3950680260746784,0.587224953791131,0.3331620644479419,-0.6229696198300898,0.0,0.0,0.0,0.0,0.0,0.0,0.0,0.0,0.0,1.0393861532211304,-0.46286898851394653,-0.43865838646888733,0.0,0.0,0.0,0.0,0.0,0.0,0.0,0.0,0.0,9.719303164568604,-0.9488660209889873,-0.8214616664332334,0.0,0.0,0.0,0.0,0.0,0.0,0.0,0.0,0.0
1703250047178806687,14145,1702029030987354278,base_link,0.3950680260746784,0.587224953791131,0.3331620644479419,-0.6229696198300898,0.0,0.0,0.0,0.0,0.0,0.0,0.0,0.0,0.0,1.006367564201355,-0.42876192927360535,-0.39286136627197266,0.0,0.0,0.0,0.0,0.0,0.0,0.0,0.0,0.0,9.698503132358404,-0.8274192430831702,-1.1377233353543994,0.0,0.0,0.0,0.0,0.0,0.0,0.0,0.0,0.0
1703250047178834416,14146,1702029030987590074,base_link,0.3924991085659153,0.5898457568087184,0.3313426953808004,-0.6230878358365683,0.0,0.0,0.0,0.0,0.0,0.0,0.0,0.0,0.0,1.006367564201355,-0.42876192927360535,-0.39286136627197266,0.0,0.0,0.0,0.0,0.0,0.0,0.0,0.0,0.0,9.698503132358404,-0.8274192430831702,-1.1377233353543994,0.0,0.0,0.0,0.0,0.0,0.0,0.0,0.0,0.0
1703250047185302435,14147,1702029030994030475,base_link,0.3924991085659153,0.5898457568087184,0.3313426953808004,-0.6230878358365683,0.0,0.0,0.0,0.0,0.0,0.0,0.0,0.0,0.0,1.0021121501922607,-0.3605687618255615,-0.34386828541755676,0.0,0.0,0.0,0.0,0.0,0.0,0.0,0.0,0.0,9.696232237274348,-0.7561735262335522,-1.2046916614076937,0.0,0.0,0.0,0.0,0.0,0.0,0.0,0.0,0.0
1703250047188360572,14148,1702029030997284889,base_link,0.38995309581645854,0.5922328046135288,0.3295085944470474,-0.6233947179663016,0.0,0.0,0.0,0.0,0.0,0.0,0.0,0.0,0.0,1.0021121501922607,-0.3605687618255615,-0.34386828541755676,0.0,0.0,0.0,0.0,0.0,0.0,0.0,0.0,0.0,9.696232237274348,-0.7561735262335522,-1.2046916614076937,0.0,0.0,0.0,0.0,0.0,0.0,0.0,0.0,0.0
1703250047191530183,14149,1702029031000712633,base_link,0.38995309581645854,0.5922328046135288,0.3295085944470474,-0.6233947179663016,0.0,0.0,0.0,0.0,0.0,0.0,0.0,0.0,0.0,0.9882702231407166,-0.2859869599342346,-0.27996116876602173,0.0,0.0,0.0,0.0,0.0,0.0,0.0,0.0,0.0,9.675918588097622,-0.9089542781943196,-1.2611112546715275,0.0,0.0,0.0,0.0,0.0,0.0,0.0,0.0,0.0
1703250047195023740,14150,1702029031003946781,base_link,0.38751269940284494,0.5943256498956381,0.32768794291808245,-0.6238842374541638,0.0,0.0,0.0,0.0,0.0,0.0,0.0,0.0,0.0,0.9882702231407166,-0.2859869599342346,-0.27996116876602173,0.0,0.0,0.0,0.0,0.0,0.0,0.0,0.0,0.0,9.675918588097622,-0.9089542781943196,-1.2611112546715275,0.0,0.0,0.0,0.0,0.0,0.0,0.0,0.0,0.0
1703250047198493969,14151,1702029031007364749,base_link,0.38751269940284494,0.5943256498956381,0.32768794291808245,-0.6238842374541638,0.0,0.0,0.0,0.0,0.0,0.0,0.0,0.0,0.0,0.9637763500213623,-0.21993006765842438,-0.23735880851745605,0.0,0.0,0.0,0.0,0.0,0.0,0.0,0.0,0.0,9.675416140159829,-1.0593593852160001,-1.1419633127598534,0.0,0.0,0.0,0.0,0.0,0.0,0.0,0.0,0.0
1703250047201392996,14152,1702029031010595560,base_link,0.3851046421530966,0.596195455954528,0.3259066204503103,-0.6245240328746086,0.0,0.0,0.0,0.0,0.0,0.0,0.0,0.0,0.0,0.9637763500213623,-0.21993006765842438,-0.23735880851745605,0.0,0.0,0.0,0.0,0.0,0.0,0.0,0.0,0.0,9.675416140159829,-1.0593593852160001,-1.1419633127598534,0.0,0.0,0.0,0.0,0.0,0.0,0.0,0.0,0.0
1703250047205229078,14153,1702029031014046430,base_link,0.3851046421530966,0.596195455954528,0.3259066204503103,-0.6245240328746086,0.0,0.0,0.0,0.0,0.0,0.0,0.0,0.0,0.0,0.9797630906105042,-0.169854074716568,-0.22991009056568146,0.0,0.0,0.0,0.0,0.0,0.0,0.0,0.0,0.0,9.706756008870558,-1.0587113847296106,-0.8354747082343259,0.0,0.0,0.0,0.0,0.0,0.0,0.0,0.0,0.0
1703250047208092345,14154,1702029031017257928,base_link,0.3826349086876861,0.5980079368873724,0.32412967223744504,-0.625233548083051,0.0,0.0,0.0,0.0,0.0,0.0,0.0,0.0,0.0,0.9797630906105042,-0.169854074716568,-0.22991009056568146,0.0,0.0,0.0,0.0,0.0,0.0,0.0,0.0,0.0,9.706756008870558,-1.0587113847296106,-0.8354747082343259,0.0,0.0,0.0,0.0,0.0,0.0,0.0,0.0,0.0
1703250047211621384,14155,1702029031020693063,base_link,0.3826349086876861,0.5980079368873724,0.32412967223744504,-0.625233548083051,0.0,0.0,0.0,0.0,0.0,0.0,0.0,0.0,0.0,0.9563347101211548,-0.19967246055603027,-0.2405708134174347,0.0,0.0,0.0,0.0,0.0,0.0,0.0,0.0,0.0,9.705487929428028,-1.1938243644995412,-0.6467514502915076,0.0,0.0,0.0,0.0,0.0,0.0,0.0,0.0,0.0
1703250047215115849,14156,1702029031023943185,base_link,0.3802240943102304,0.5999055514322842,0.32237586443557553,-0.6257929126285369,0.0,0.0,0.0,0.0,0.0,0.0,0.0,0.0,0.0,0.9563347101211548,-0.19967246055603027,-0.2405708134174347,0.0,0.0,0.0,0.0,0.0,0.0,0.0,0.0,0.0,9.705487929428028,-1.1938243644995412,-0.6467514502915076,0.0,0.0,0.0,0.0,0.0,0.0,0.0,0.0,0.0
1703250047218503589,14157,1702029031027362823,base_link,0.3802240943102304,0.5999055514322842,0.32237586443557553,-0.6257929126285369,0.0,0.0,0.0,0.0,0.0,0.0,0.0,0.0,0.0,0.9265140295028687,-0.2731647193431854,-0.25229671597480774,0.0,0.0,0.0,0.0,0.0,0.0,0.0,0.0,0.0,9.720483036358324,-1.1595070500231777,-0.45579923301452235,0.0,0.0,0.0,0.0,0.0,0.0,0.0,0.0,0.0
1703250047222097165,14158,1702029031030602693,base_link,0.37792655031546285,0.6019391022391516,0.3206235697441894,-0.6261320677673927,0.0,0.0,0.0,0.0,0.0,0.0,0.0,0.0,0.0,0.9265140295028687,-0.2731647193431854,-0.25229671597480774,0.0,0.0,0.0,0.0,0.0,0.0,0.0,0.0,0.0,9.720483036358324,-1.1595070500231777,-0.45579923301452235,0.0,0.0,0.0,0.0,0.0,0.0,0.0,0.0,0.0
1703250047225041104,14159,1702029031034041166,base_link,0.37792655031546285,0.6019391022391516,0.3206235697441894,-0.6261320677673927,0.0,0.0,0.0,0.0,0.0,0.0,0.0,0.0,0.0,0.8892351388931274,-0.361567884683609,-0.3066331446170807,0.0,0.0,0.0,0.0,0.0,0.0,0.0,0.0,0.0,9.725401931958828,-1.1379131584913253,-0.4021329451609132,0.0,0.0,0.0,0.0,0.0,0.0,0.0,0.0,0.0
1703250047228360326,14160,1702029031037270784,base_link,0.37568816385246817,0.6042976399713056,0.31902863358701405,-0.6260219619293513,0.0,0.0,0.0,0.0,0.0,0.0,0.0,0.0,0.0,0.8892351388931274,-0.361567884683609,-0.3066331446170807,0.0,0.0,0.0,0.0,0.0,0.0,0.0,0.0,0.0,9.725401931958828,-1.1379131584913253,-0.4021329451609132,0.0,0.0,0.0,0.0,0.0,0.0,0.0,0.0,0.0
1703250047231667114,14161,1702029031040691137,base_link,0.37568816385246817,0.6042976399713056,0.31902863358701405,-0.6260219619293513,0.0,0.0,0.0,0.0,0.0,0.0,0.0,0.0,0.0,0.833843469619751,-0.5085543990135193,-0.4259507954120636,0.0,0.0,0.0,0.0,0.0,0.0,0.0,0.0,0.0,9.716679562775788,-1.197597815202266,-0.43806135113484884,0.0,0.0,0.0,0.0,0.0,0.0,0.0,0.0,0.0
1703250047235308675,14162,1702029031043940544,base_link,0.37354910779476336,0.6068967885556205,0.31752150468592333,-0.6255537116575984,0.0,0.0,0.0,0.0,0.0,0.0,0.0,0.0,0.0,0.833843469619751,-0.5085543990135193,-0.4259507954120636,0.0,0.0,0.0,0.0,0.0,0.0,0.0,0.0,0.0,9.716679562775788,-1.197597815202266,-0.43806135113484884,0.0,0.0,0.0,0.0,0.0,0.0,0.0,0.0,0.0
1703250047242163431,14163,1702029031050687074,base_link,0.37354910779476336,0.6068967885556205,0.31752150468592333,-0.6255537116575984,0.0,0.0,0.0,0.0,0.0,0.0,0.0,0.0,0.0,0.805083155632019,-0.5639270544052124,-0.37802162766456604,0.0,0.0,0.0,0.0,0.0,0.0,0.0,0.0,0.0,9.740578705227726,-0.9529984191556378,-0.5029120204877159,0.0,0.0,0.0,0.0,0.0,0.0,0.0,0.0,0.0
1703250047244868147,14164,1702029031053940296,base_link,0.3715307385271862,0.6095366398544965,0.31591441653420876,-0.6250024611393012,0.0,0.0,0.0,0.0,0.0,0.0,0.0,0.0,0.0,0.805083155632019,-0.5639270544052124,-0.37802162766456604,0.0,0.0,0.0,0.0,0.0,0.0,0.0,0.0,0.0,9.740578705227726,-0.9529984191556378,-0.5029120204877159,0.0,0.0,0.0,0.0,0.0,0.0,0.0,0.0,0.0
1703250047248104112,14165,1702029031057374238,base_link,0.3715307385271862,0.6095366398544965,0.31591441653420876,-0.6250024611393012,0.0,0.0,0.0,0.0,0.0,0.0,0.0,0.0,0.0,0.815737247467041,-0.5745576620101929,-0.43874961137771606,0.0,0.0,0.0,0.0,0.0,0.0,0.0,0.0,0.0,9.734681619569495,-0.9040696815074647,-0.6772235794734829,0.0,0.0,0.0,0.0,0.0,0.0,0.0,0.0,0.0
1703250047251658086,14166,1702029031060598134,base_link,0.3693696562757628,0.6122899240179879,0.3144251096100559,-0.6243428196235427,0.0,0.0,0.0,0.0,0.0,0.0,0.0,0.0,0.0,0.815737247467041,-0.5745576620101929,-0.43874961137771606,0.0,0.0,0.0,0.0,0.0,0.0,0.0,0.0,0.0,9.734681619569495,-0.9040696815074647,-0.6772235794734829,0.0,0.0,0.0,0.0,0.0,0.0,0.0,0.0,0.0
1703250047255454984,14167,1702029031064037322,base_link,0.3693696562757628,0.6122899240179879,0.3144251096100559,-0.6243428196235427,0.0,0.0,0.0,0.0,0.0,0.0,0.0,0.0,0.0,0.7976283431053162,-0.5905133485794067,-0.4643239974975586,0.0,0.0,0.0,0.0,0.0,0.0,0.0,0.0,0.0,9.734839838758544,-0.7491356459013299,-0.8436166770278489,0.0,0.0,0.0,0.0,0.0,0.0,0.0,0.0,0.0
1703250047258360857,14168,1702029031067261695,base_link,0.36724072969947785,0.6150693624235581,0.3129757724125261,-0.6235944930324959,0.0,0.0,0.0,0.0,0.0,0.0,0.0,0.0,0.0,0.7976283431053162,-0.5905133485794067,-0.4643239974975586,0.0,0.0,0.0,0.0,0.0,0.0,0.0,0.0,0.0,9.734839838758544,-0.7491356459013299,-0.8436166770278489,0.0,0.0,0.0,0.0,0.0,0.0,0.0,0.0,0.0
1703250047261759004,14169,1702029031070692062,base_link,0.36724072969947785,0.6150693624235581,0.3129757724125261,-0.6235944930324959,0.0,0.0,0.0,0.0,0.0,0.0,0.0,0.0,0.0,0.772062361240387,-0.5990118980407715,-0.4494181275367737,0.0,0.0,0.0,0.0,0.0,0.0,0.0,0.0,0.0,9.730517563322385,-0.5752736446613546,-1.0129601095959484,0.0,0.0,0.0,0.0,0.0,0.0,0.0,0.0,0.0
1703250047265012081,14170,1702029031073944807,base_link,0.3652097839153277,0.6178194960732863,0.31151664715891925,-0.622798733578622,0.0,0.0,0.0,0.0,0.0,0.0,0.0,0.0,0.0,0.772062361240387,-0.5990118980407715,-0.4494181275367737,0.0,0.0,0.0,0.0,0.0,0.0,0.0,0.0,0.0,9.730517563322385,-0.5752736446613546,-1.0129601095959484,0.0,0.0,0.0,0.0,0.0,0.0,0.0,0.0,0.0
1703250047268174219,14171,1702029031077367067,base_link,0.3652097839153277,0.6178194960732863,0.31151664715891925,-0.622798733578622,0.0,0.0,0.0,0.0,0.0,0.0,0.0,0.0,0.0,0.7518227696418762,-0.5968581438064575,-0.42279407382011414,0.0,0.0,0.0,0.0,0.0,0.0,0.0,0.0,0.0,9.709921310581867,-0.5718368774226835,-1.196006157144523,0.0,0.0,0.0,0.0,0.0,0.0,0.0,0.0,0.0
1703250047271469204,14172,1702029031080596446,base_link,0.36324482415042525,0.6204442295464534,0.31004761787233903,-0.6220712422240096,0.0,0.0,0.0,0.0,0.0,0.0,0.0,0.0,0.0,0.7518227696418762,-0.5968581438064575,-0.42279407382011414,0.0,0.0,0.0,0.0,0.0,0.0,0.0,0.0,0.0,9.709921310581867,-0.5718368774226835,-1.196006157144523,0.0,0.0,0.0,0.0,0.0,0.0,0.0,0.0,0.0
1703250047275308638,14173,1702029031084040641,base_link,0.36324482415042525,0.6204442295464534,0.31004761787233903,-0.6220712422240096,0.0,0.0,0.0,0.0,0.0,0.0,0.0,0.0,0.0,0.7592808604240417,-0.5254645347595215,-0.37379929423332214,0.0,0.0,0.0,0.0,0.0,0.0,0.0,0.0,0.0,9.721260379900382,-0.6008267065888888,-1.084483238611186,0.0,0.0,0.0,0.0,0.0,0.0,0.0,0.0,0.0
1703250047278129928,14174,1702029031087266206,base_link,0.36124773772843743,0.6228603764337736,0.3085153854414352,-0.6215812741715975,0.0,0.0,0.0,0.0,0.0,0.0,0.0,0.0,0.0,0.7592808604240417,-0.5254645347595215,-0.37379929423332214,0.0,0.0,0.0,0.0,0.0,0.0,0.0,0.0,0.0,9.721260379900382,-0.6008267065888888,-1.084483238611186,0.0,0.0,0.0,0.0,0.0,0.0,0.0,0.0,0.0
1703250047281815841,14175,1702029031090696811,base_link,0.36124773772843743,0.6228603764337736,0.3085153854414352,-0.6215812741715975,0.0,0.0,0.0,0.0,0.0,0.0,0.0,0.0,0.0,0.8072206974029541,-0.4146595895290375,-0.32054346799850464,0.0,0.0,0.0,0.0,0.0,0.0,0.0,0.0,0.0,9.72437808697713,-0.5218635189721947,-1.0973282503813444,0.0,0.0,0.0,0.0,0.0,0.0,0.0,0.0,0.0
1703250047284872231,14176,1702029031093944072,base_link,0.35911990401822214,0.6250156655413748,0.3068701203281452,-0.6214652376566245,0.0,0.0,0.0,0.0,0.0,0.0,0.0,0.0,0.0,0.8072206974029541,-0.4146595895290375,-0.32054346799850464,0.0,0.0,0.0,0.0,0.0,0.0,0.0,0.0,0.0,9.72437808697713,-0.5218635189721947,-1.0973282503813444,0.0,0.0,0.0,0.0,0.0,0.0,0.0,0.0,0.0
1703250047291746754,14177,1702029031100680589,base_link,0.35911990401822214,0.6250156655413748,0.3068701203281452,-0.6214652376566245,0.0,0.0,0.0,0.0,0.0,0.0,0.0,0.0,0.0,0.8785984516143799,-0.3102502226829529,-0.2651573121547699,0.0,0.0,0.0,0.0,0.0,0.0,0.0,0.0,0.0,9.73728616351874,-0.4289780465445967,-1.0204097242428056,0.0,0.0,0.0,0.0,0.0,0.0,0.0,0.0,0.0
1703250047291762120,14178,1702029031100916624,base_link,0.35685132839760547,0.6269595174901288,0.3050784667911578,-0.6216960848756936,0.0,0.0,0.0,0.0,0.0,0.0,0.0,0.0,0.0,0.8785984516143799,-0.3102502226829529,-0.2651573121547699,0.0,0.0,0.0,0.0,0.0,0.0,0.0,0.0,0.0,9.73728616351874,-0.4289780465445967,-1.0204097242428056,0.0,0.0,0.0,0.0,0.0,0.0,0.0,0.0,0.0
1703250047298357607,14179,1702029031107344388,base_link,0.35685132839760547,0.6269595174901288,0.3050784667911578,-0.6216960848756936,0.0,0.0,0.0,0.0,0.0,0.0,0.0,0.0,0.0,0.9276072978973389,-0.25378045439720154,-0.22894611954689026,0.0,0.0,0.0,0.0,0.0,0.0,0.0,0.0,0.0,9.741896025997644,-0.5177845542612172,-0.9313221644628993,0.0,0.0,0.0,0.0,0.0,0.0,0.0,0.0,0.0
1703250047301587775,14180,1702029031110596418,base_link,0.3545303509932083,0.6288011439011055,0.30319499692013685,-0.6220853201096229,0.0,0.0,0.0,0.0,0.0,0.0,0.0,0.0,0.0,0.9276072978973389,-0.25378045439720154,-0.22894611954689026,0.0,0.0,0.0,0.0,0.0,0.0,0.0,0.0,0.0,9.741896025997644,-0.5177845542612172,-0.9313221644628993,0.0,0.0,0.0,0.0,0.0,0.0,0.0,0.0,0.0
1703250047304814730,14181,1702029031114040851,base_link,0.3545303509932083,0.6288011439011055,0.30319499692013685,-0.6220853201096229,0.0,0.0,0.0,0.0,0.0,0.0,0.0,0.0,0.0,0.9286795258522034,-0.25377029180526733,-0.22362755239009857,0.0,0.0,0.0,0.0,0.0,0.0,0.0,0.0,0.0,9.751388287983195,-0.5563415065265427,-0.8005689133984465,0.0,0.0,0.0,0.0,0.0,0.0,0.0,0.0,0.0
1703250047308004736,14182,1702029031117271184,base_link,0.3522124744046682,0.6306610204492158,0.3012992571939961,-0.6224402041755022,0.0,0.0,0.0,0.0,0.0,0.0,0.0,0.0,0.0,0.9286795258522034,-0.25377029180526733,-0.22362755239009857,0.0,0.0,0.0,0.0,0.0,0.0,0.0,0.0,0.0,9.751388287983195,-0.5563415065265427,-0.8005689133984465,0.0,0.0,0.0,0.0,0.0,0.0,0.0,0.0,0.0
1703250047311592166,14183,1702029031120693445,base_link,0.3522124744046682,0.6306610204492158,0.3012992571939961,-0.6224402041755022,0.0,0.0,0.0,0.0,0.0,0.0,0.0,0.0,0.0,0.9105767011642456,-0.2708037495613098,-0.22683106362819672,0.0,0.0,0.0,0.0,0.0,0.0,0.0,0.0,0.0,9.745654324410227,-0.5903618398297057,-0.8448045260160127,0.0,0.0,0.0,0.0,0.0,0.0,0.0,0.0,0.0
1703250047315302874,14184,1702029031123941898,base_link,0.3499491907224361,0.6325200557045542,0.29944690796818946,-0.6227242506539395,0.0,0.0,0.0,0.0,0.0,0.0,0.0,0.0,0.0,0.9105767011642456,-0.2708037495613098,-0.22683106362819672,0.0,0.0,0.0,0.0,0.0,0.0,0.0,0.0,0.0,9.745654324410227,-0.5903618398297057,-0.8448045260160127,0.0,0.0,0.0,0.0,0.0,0.0,0.0,0.0,0.0
1703250047318568873,14185,1702029031127355813,base_link,0.3499491907224361,0.6325200557045542,0.29944690796818946,-0.6227242506539395,0.0,0.0,0.0,0.0,0.0,0.0,0.0,0.0,0.0,0.9063218235969543,-0.28677141666412354,-0.25453558564186096,0.0,0.0,0.0,0.0,0.0,0.0,0.0,0.0,0.0,9.772687846348738,-0.34344466948011537,-0.6454595392690134,0.0,0.0,0.0,0.0,0.0,0.0,0.0,0.0,0.0
1703250047321692665,14186,1702029031130589723,base_link,0.3476547360469796,0.634433611185718,0.29766906932108456,-0.622915164907288,0.0,0.0,0.0,0.0,0.0,0.0,0.0,0.0,0.0,0.9063218235969543,-0.28677141666412354,-0.25453558564186096,0.0,0.0,0.0,0.0,0.0,0.0,0.0,0.0,0.0,9.772687846348738,-0.34344466948011537,-0.6454595392690134,0.0,0.0,0.0,0.0,0.0,0.0,0.0,0.0,0.0
1703250047325010071,14187,1702029031134040832,base_link,0.3476547360469796,0.634433611185718,0.29766906932108456,-0.622915164907288,0.0,0.0,0.0,0.0,0.0,0.0,0.0,0.0,0.0,0.8882178068161011,-0.32084736227989197,-0.282240092754364,0.0,0.0,0.0,0.0,0.0,0.0,0.0,0.0,0.0,9.77111416938644,-0.46932035990281656,-0.5874234321137181,0.0,0.0,0.0,0.0,0.0,0.0,0.0,0.0,0.0
1703250047328102572,14188,1702029031137269020,base_link,0.34540709461457986,0.6364326394207528,0.2959313602966802,-0.6229543036714693,0.0,0.0,0.0,0.0,0.0,0.0,0.0,0.0,0.0,0.8882178068161011,-0.32084736227989197,-0.282240092754364,0.0,0.0,0.0,0.0,0.0,0.0,0.0,0.0,0.0,9.77111416938644,-0.46932035990281656,-0.5874234321137181,0.0,0.0,0.0,0.0,0.0,0.0,0.0,0.0,0.0
1703250047331737148,14189,1702029031140697240,base_link,0.34540709461457986,0.6364326394207528,0.2959313602966802,-0.6229543036714693,0.0,0.0,0.0,0.0,0.0,0.0,0.0,0.0,0.0,0.8509381413459778,-0.3836837410926819,-0.29503074288368225,0.0,0.0,0.0,0.0,0.0,0.0,0.0,0.0,0.0,9.774997140825576,-0.39114625261178043,-0.5800306077437528,0.0,0.0,0.0,0.0,0.0,0.0,0.0,0.0,0.0
1703250047335394424,14190,1702029031143939495,base_link,0.34327993821222735,0.6385310653405185,0.2942286867722764,-0.6227892440435797,0.0,0.0,0.0,0.0,0.0,0.0,0.0,0.0,0.0,0.8509381413459778,-0.3836837410926819,-0.29503074288368225,0.0,0.0,0.0,0.0,0.0,0.0,0.0,0.0,0.0,9.774997140825576,-0.39114625261178043,-0.5800306077437528,0.0,0.0,0.0,0.0,0.0,0.0,0.0,0.0,0.0
1703250047338509765,14191,1702029031147359848,base_link,0.34327993821222735,0.6385310653405185,0.2942286867722764,-0.6227892440435797,0.0,0.0,0.0,0.0,0.0,0.0,0.0,0.0,0.0,0.8008743524551392,-0.4497140944004059,-0.2982337474822998,0.0,0.0,0.0,0.0,0.0,0.0,0.0,0.0,0.0,9.774392446470031,-0.2546757235563595,-0.6606001651684966,0.0,0.0,0.0,0.0,0.0,0.0,0.0,0.0,0.0
1703250047341696489,14192,1702029031150594472,base_link,0.34129141595800416,0.6407343681178401,0.29254081326281767,-0.6224142603455853,0.0,0.0,0.0,0.0,0.0,0.0,0.0,0.0,0.0,0.8008743524551392,-0.4497140944004059,-0.2982337474822998,0.0,0.0,0.0,0.0,0.0,0.0,0.0,0.0,0.0,9.774392446470031,-0.2546757235563595,-0.6606001651684966,0.0,0.0,0.0,0.0,0.0,0.0,0.0,0.0,0.0
1703250047344933362,14193,1702029031154026031,base_link,0.34129141595800416,0.6407343681178401,0.29254081326281767,-0.6224142603455853,0.0,0.0,0.0,0.0,0.0,0.0,0.0,0.0,0.0,0.7742457985877991,-0.501894474029541,-0.2886534333229065,0.0,0.0,0.0,0.0,0.0,0.0,0.0,0.0,0.0,9.782788353424714,-0.046641279535431505,-0.5786852539516639,0.0,0.0,0.0,0.0,0.0,0.0,0.0,0.0,0.0
1703250047348347853,14194,1702029031157259941,base_link,0.3394589419228277,0.6429923184255484,0.2908190292445155,-0.6218945227477486,0.0,0.0,0.0,0.0,0.0,0.0,0.0,0.0,0.0,0.7742457985877991,-0.501894474029541,-0.2886534333229065,0.0,0.0,0.0,0.0,0.0,0.0,0.0,0.0,0.0,9.782788353424714,-0.046641279535431505,-0.5786852539516639,0.0,0.0,0.0,0.0,0.0,0.0,0.0,0.0,0.0
