%time,field.header.seq,field.header.stamp,field.header.frame_id,field.orientation.x,field.orientation.y,field.orientation.z,field.orientation.w,field.orientation_covariance0,field.orientation_covariance1,field.orientation_covariance2,field.orientation_covariance3,field.orientation_covariance4,field.orientation_covariance5,field.orientation_covariance6,field.orientation_covariance7,field.orientation_covariance8,field.angular_velocity.x,field.angular_velocity.y,field.angular_velocity.z,field.angular_velocity_covariance0,field.angular_velocity_covariance1,field.angular_velocity_covariance2,field.angular_velocity_covariance3,field.angular_velocity_covariance4,field.angular_velocity_covariance5,field.angular_velocity_covariance6,field.angular_velocity_covariance7,field.angular_velocity_covariance8,field.linear_acceleration.x,field.linear_acceleration.y,field.linear_acceleration.z,field.linear_acceleration_covariance0,field.linear_acceleration_covariance1,field.linear_acceleration_covariance2,field.linear_acceleration_covariance3,field.linear_acceleration_covariance4,field.linear_acceleration_covariance5,field.linear_acceleration_covariance6,field.linear_acceleration_covariance7,field.linear_acceleration_covariance8
1702031407391022078,1,1702031407390258789,base_link,0.017947801590504384,0.014991970734750743,-0.653764385027906,0.7563367279860476,0.0,0.0,0.0,0.0,0.0,0.0,0.0,0.0,0.0,-0.00029715243726968765,-0.0011392561718821526,-0.002229994162917137,0.0,0.0,0.0,0.0,0.0,0.0,0.0,0.0,0.0,-0.48975218595584474,0.10796547733002218,9.787159253432856,0.0,0.0,0.0,0.0,0.0,0.0,0.0,0.0,0.0
1702031407393658876,2,1702031407393259763,base_link,0.017947801590504384,0.014991970734750743,-0.653764385027906,0.7563367279860476,0.0,0.0,0.0,0.0,0.0,0.0,0.0,0.0,0.0,-0.0024268440902233124,0.0020564571022987366,-0.0022298507392406464,0.0,0.0,0.0,0.0,0.0,0.0,0.0,0.0,0.0,-0.43888274298619384,0.07054638523422567,9.78991343911882,0.0,0.0,0.0,0.0,0.0,0.0,0.0,0.0,0.0
1702031407396715097,3,1702031407396373748,base_link,0.01794522212268537,0.01499242769611957,-0.6537642670293508,0.7563368821301258,0.0,0.0,0.0,0.0,0.0,0.0,0.0,0.0,0.0,-0.0024268440902233124,0.0020564571022987366,-0.0022298507392406464,0.0,0.0,0.0,0.0,0.0,0.0,0.0,0.0,0.0,-0.43888274298619384,0.07054638523422567,9.78991343911882,0.0,0.0,0.0,0.0,0.0,0.0,0.0,0.0,0.0
1702031407400307127,4,1702031407399834632,base_link,0.01794522212268537,0.01499242769611957,-0.6537642670293508,0.7563368821301258,0.0,0.0,0.0,0.0,0.0,0.0,0.0,0.0,0.0,-0.003491245210170746,0.0020563462749123573,-0.0011644307523965836,0.0,0.0,0.0,0.0,0.0,0.0,0.0,0.0,0.0,-0.461296076160069,0.09206554336413826,9.78870419748418,0.0,0.0,0.0,0.0,0.0,0.0,0.0,0.0,0.0
1702031407403409997,5,1702031407403024196,base_link,0.017947656100052473,0.014994423413103464,-0.6537654450438222,0.7563357665572056,0.0,0.0,0.0,0.0,0.0,0.0,0.0,0.0,0.0,-0.003491245210170746,0.0020563462749123573,-0.0011644307523965836,0.0,0.0,0.0,0.0,0.0,0.0,0.0,0.0,0.0,-0.461296076160069,0.09206554336413826,9.78870419748418,0.0,0.0,0.0,0.0,0.0,0.0,0.0,0.0,0.0
1702031407406812457,6,1702031407406491756,base_link,0.017947656100052473,0.014994423413103464,-0.6537654450438222,0.7563357665572056,0.0,0.0,0.0,0.0,0.0,0.0,0.0,0.0,0.0,0.001835966482758522,-0.002204745076596737,-9.904243052005768e-05,0.0,0.0,0.0,0.0,0.0,0.0,0.0,0.0,0.0,-0.44245303941521164,0.15148538575625214,9.788834838008789,0.0,0.0,0.0,0.0,0.0,0.0,0.0,0.0,0.0
1702031407410136739,7,1702031407409754991,base_link,0.01794952932665888,0.01499282479823601,-0.6537652804665565,0.7563358960528089,0.0,0.0,0.0,0.0,0.0,0.0,0.0,0.0,0.0,0.001835966482758522,-0.002204745076596737,-9.904243052005768e-05,0.0,0.0,0.0,0.0,0.0,0.0,0.0,0.0,0.0,-0.44245303941521164,0.15148538575625214,9.788834838008789,0.0,0.0,0.0,0.0,0.0,0.0,0.0,0.0,0.0
1702031407413414204,8,1702031407413125991,base_link,0.01794952932665888,0.01499282479823601,-0.6537652804665565,0.7563358960528089,0.0,0.0,0.0,0.0,0.0,0.0,0.0,0.0,0.0,0.0018368083983659744,-0.0011395476758480072,-0.004359962418675423,0.0,0.0,0.0,0.0,0.0,0.0,0.0,0.0,0.0,-0.43759248517453525,0.10989722339392576,9.789608542592962,0.0,0.0,0.0,0.0,0.0,0.0,0.0,0.0,0.0
1702031407416687262,9,1702031407416342496,base_link,0.017956146135826148,0.014986414852807918,-0.6537733768636639,0.7563288675504128,0.0,0.0,0.0,0.0,0.0,0.0,0.0,0.0,0.0,0.0018368083983659744,-0.0011395476758480072,-0.004359962418675423,0.0,0.0,0.0,0.0,0.0,0.0,0.0,0.0,0.0,-0.43759248517453525,0.10989722339392576,9.789608542592962,0.0,0.0,0.0,0.0,0.0,0.0,0.0,0.0,0.0
1702031407420236521,10,1702031407419868230,base_link,0.017956146135826148,0.014986414852807918,-0.6537733768636639,0.7563288675504128,0.0,0.0,0.0,0.0,0.0,0.0,0.0,0.0,0.0,0.000772431492805481,0.0009908676147460938,0.002031758427619934,0.0,0.0,0.0,0.0,0.0,0.0,0.0,0.0,0.0,-0.45008936038067093,0.08430210526296755,9.789295823639225,0.0,0.0,0.0,0.0,0.0,0.0,0.0,0.0,0.0
1702031407423200513,11,1702031407422988891,base_link,0.017964691217486038,0.01497831702512785,-0.6537680737525274,0.7563334090402625,0.0,0.0,0.0,0.0,0.0,0.0,0.0,0.0,0.0,0.000772431492805481,0.0009908676147460938,0.002031758427619934,0.0,0.0,0.0,0.0,0.0,0.0,0.0,0.0,0.0,-0.45008936038067093,0.08430210526296755,9.789295823639225,0.0,0.0,0.0,0.0,0.0,0.0,0.0,0.0,0.0
1702031407426931470,12,1702031407426479101,base_link,0.017964691217486038,0.01497831702512785,-0.6537680737525274,0.7563334090402625,0.0,0.0,0.0,0.0,0.0,0.0,0.0,0.0,0.0,-0.0002919500693678856,-0.0011397209018468857,-0.002229170873761177,0.0,0.0,0.0,0.0,0.0,0.0,0.0,0.0,0.0,-0.45796668416628644,0.13517523281062915,9.788360137051985,0.0,0.0,0.0,0.0,0.0,0.0,0.0,0.0,0.0
1702031407430135511,13,1702031407429676771,base_link,0.017965725107246876,0.014979544557644543,-0.6537719795535333,0.7563299840128453,0.0,0.0,0.0,0.0,0.0,0.0,0.0,0.0,0.0,-0.0002919500693678856,-0.0011397209018468857,-0.002229170873761177,0.0,0.0,0.0,0.0,0.0,0.0,0.0,0.0,0.0,-0.45796668416628644,0.13517523281062915,9.788360137051985,0.0,0.0,0.0,0.0,0.0,0.0,0.0,0.0,0.0
1702031407433547025,14,1702031407433068275,base_link,0.017965725107246876,0.014979544557644543,-0.6537719795535333,0.7563299840128453,0.0,0.0,0.0,0.0,0.0,0.0,0.0,0.0,0.0,-0.002421620301902294,0.0031211944296956062,0.0009667817503213882,0.0,0.0,0.0,0.0,0.0,0.0,0.0,0.0,0.0,-0.5020644226991756,0.07106684471513616,9.786872882542308,0.0,0.0,0.0,0.0,0.0,0.0,0.0,0.0,0.0
1702031407436833904,15,1702031407436392307,base_link,0.017971708079115745,0.014991632402727306,-0.6537690514815714,0.7563321333855297,0.0,0.0,0.0,0.0,0.0,0.0,0.0,0.0,0.0,-0.002421620301902294,0.0031211944296956062,0.0009667817503213882,0.0,0.0,0.0,0.0,0.0,0.0,0.0,0.0,0.0,-0.5020644226991756,0.07106684471513616,9.786872882542308,0.0,0.0,0.0,0.0,0.0,0.0,0.0,0.0,0.0
1702031407439940954,16,1702031407439651250,base_link,0.017971708079115745,0.014991632402727306,-0.6537690514815714,0.7563321333855297,0.0,0.0,0.0,0.0,0.0,0.0,0.0,0.0,0.0,-0.002420760691165924,-7.470324635505676e-05,-0.0022288691252470016,0.0,0.0,0.0,0.0,0.0,0.0,0.0,0.0,0.0,-0.43193164407194645,0.09171431599181538,9.79004716735785,0.0,0.0,0.0,0.0,0.0,0.0,0.0,0.0,0.0
1702031407443183036,17,1702031407442915678,base_link,0.017970535903487638,0.014990649040174305,-0.6537716331121306,0.7563299491746927,0.0,0.0,0.0,0.0,0.0,0.0,0.0,0.0,0.0,-0.002420760691165924,-7.470324635505676e-05,-0.0022288691252470016,0.0,0.0,0.0,0.0,0.0,0.0,0.0,0.0,0.0,-0.43193164407194645,0.09171431599181538,9.79004716735785,0.0,0.0,0.0,0.0,0.0,0.0,0.0,0.0,0.0
1702031407446659851,18,1702031407446361064,base_link,0.017970535903487638,0.014990649040174305,-0.6537716331121306,0.7563299491746927,0.0,0.0,0.0,0.0,0.0,0.0,0.0,0.0,0.0,0.001841164194047451,-7.477123290300369e-05,-0.0022287406027317047,0.0,0.0,0.0,0.0,0.0,0.0,0.0,0.0,0.0,-0.4709398990913392,0.11655049564592512,9.787984041333974,0.0,0.0,0.0,0.0,0.0,0.0,0.0,0.0,0.0
1702031407450017461,19,1702031407449651241,base_link,0.01797207771863143,0.014986740001840831,-0.6537729709978615,0.7563288335368566,0.0,0.0,0.0,0.0,0.0,0.0,0.0,0.0,0.0,0.001841164194047451,-7.477123290300369e-05,-0.0022287406027317047,0.0,0.0,0.0,0.0,0.0,0.0,0.0,0.0,0.0,-0.4709398990913392,0.11655049564592512,9.787984041333974,0.0,0.0,0.0,0.0,0.0,0.0,0.0,0.0,0.0
1702031407453708210,20,1702031407453233242,base_link,0.01797207771863143,0.014986740001840831,-0.6537729709978615,0.7563288335368566,0.0,0.0,0.0,0.0,0.0,0.0,0.0,0.0,0.0,-0.0002884799614548683,-0.0032706446945667267,0.0030977297574281693,0.0,0.0,0.0,0.0,0.0,0.0,0.0,0.0,0.0,-0.5112296418172932,0.06123977529279214,9.786464833802318,0.0,0.0,0.0,0.0,0.0,0.0,0.0,0.0,0.0
1702031407456951190,21,1702031407456473588,base_link,0.017974045631629874,0.014981218489315325,-0.653770415291061,0.7563311053145715,0.0,0.0,0.0,0.0,0.0,0.0,0.0,0.0,0.0,-0.0002884799614548683,-0.0032706446945667267,0.0030977297574281693,0.0,0.0,0.0,0.0,0.0,0.0,0.0,0.0,0.0,-0.5112296418172932,0.06123977529279214,9.786464833802318,0.0,0.0,0.0,0.0,0.0,0.0,0.0,0.0,0.0
1702031407460177886,22,1702031407459816694,base_link,0.017974045631629874,0.014981218489315325,-0.653770415291061,0.7563311053145715,0.0,0.0,0.0,0.0,0.0,0.0,0.0,0.0,0.0,-0.0013528680428862572,0.002055564895272255,0.0009673386812210083,0.0,0.0,0.0,0.0,0.0,0.0,0.0,0.0,0.0,-0.4414248057925205,0.16033865931779323,9.788740248630527,0.0,0.0,0.0,0.0,0.0,0.0,0.0,0.0,0.0
1702031407463334656,23,1702031407462994575,base_link,0.017975220707757675,0.014977762417095237,-0.6537690758011173,0.7563323036864402,0.0,0.0,0.0,0.0,0.0,0.0,0.0,0.0,0.0,-0.0013528680428862572,0.002055564895272255,0.0009673386812210083,0.0,0.0,0.0,0.0,0.0,0.0,0.0,0.0,0.0,-0.4414248057925205,0.16033865931779323,9.788740248630527,0.0,0.0,0.0,0.0,0.0,0.0,0.0,0.0,0.0
1702031407466737198,24,1702031407466426134,base_link,0.017975220707757675,0.014977762417095237,-0.6537690758011173,0.7563323036864402,0.0,0.0,0.0,0.0,0.0,0.0,0.0,0.0,0.0,-0.0034825699403882027,-7.497519254684448e-05,-0.00435885414481163,0.0,0.0,0.0,0.0,0.0,0.0,0.0,0.0,0.0,-0.4772005212776806,0.09201542867523178,9.787942215980742,0.0,0.0,0.0,0.0,0.0,0.0,0.0,0.0,0.0
1702031407470115911,25,1702031407469666957,base_link,0.01797521606839567,0.014982728585165438,-0.6537756750445374,0.756326501037414,0.0,0.0,0.0,0.0,0.0,0.0,0.0,0.0,0.0,-0.0034825699403882027,-7.497519254684448e-05,-0.00435885414481163,0.0,0.0,0.0,0.0,0.0,0.0,0.0,0.0,0.0,-0.4772005212776806,0.09201542867523178,9.787942215980742,0.0,0.0,0.0,0.0,0.0,0.0,0.0,0.0,0.0
1702031407473511668,26,1702031407473156929,base_link,0.01797521606839567,0.014982728585165438,-0.6537756750445374,0.756326501037414,0.0,0.0,0.0,0.0,0.0,0.0,0.0,0.0,0.0,-0.002416476607322693,0.0009902240708470345,-0.003293447196483612,0.0,0.0,0.0,0.0,0.0,0.0,0.0,0.0,0.0,-0.4515425972805038,0.09610539794918439,9.789120135912432,0.0,0.0,0.0,0.0,0.0,0.0,0.0,0.0,0.0
1702031407476830624,27,1702031407476429224,base_link,0.0179789031226878,0.014988473119689313,-0.6537765845317788,0.7563255134094099,0.0,0.0,0.0,0.0,0.0,0.0,0.0,0.0,0.0,-0.002416476607322693,0.0009902240708470345,-0.003293447196483612,0.0,0.0,0.0,0.0,0.0,0.0,0.0,0.0,0.0,-0.4515425972805038,0.09610539794918439,9.789120135912432,0.0,0.0,0.0,0.0,0.0,0.0,0.0,0.0,0.0
1702031407480148481,28,1702031407479770898,base_link,0.0179789031226878,0.014988473119689313,-0.6537765845317788,0.7563255134094099,0.0,0.0,0.0,0.0,0.0,0.0,0.0,0.0,0.0,-0.0013503311201930046,-0.0011404426768422127,0.0009677652269601822,0.0,0.0,0.0,0.0,0.0,0.0,0.0,0.0,0.0,-0.4280205317301916,0.14203938117723522,9.789618135484766,0.0,0.0,0.0,0.0,0.0,0.0,0.0,0.0,0.0
1702031407483367460,29,1702031407482991218,base_link,0.017975201904479165,0.014983690823626532,-0.6537779214867874,0.7563245404601199,0.0,0.0,0.0,0.0,0.0,0.0,0.0,0.0,0.0,-0.0013503311201930046,-0.0011404426768422127,0.0009677652269601822,0.0,0.0,0.0,0.0,0.0,0.0,0.0,0.0,0.0,-0.4280205317301916,0.14203938117723522,9.789618135484766,0.0,0.0,0.0,0.0,0.0,0.0,0.0,0.0,0.0
1702031407487139293,30,1702031407486654758,base_link,0.017975201904479165,0.014983690823626532,-0.6537779214867874,0.7563245404601199,0.0,0.0,0.0,0.0,0.0,0.0,0.0,0.0,0.0,0.0018463246524333954,0.000990009866654873,0.0009678993374109268,0.0,0.0,0.0,0.0,0.0,0.0,0.0,0.0,0.0,-0.4547890164822942,0.12699276714833238,9.788617869116102,0.0,0.0,0.0,0.0,0.0,0.0,0.0,0.0,0.0
1702031407490071213,31,1702031407489661693,base_link,0.017981704683737474,0.014981579789581112,-0.6537764735743655,0.756325679297181,0.0,0.0,0.0,0.0,0.0,0.0,0.0,0.0,0.0,0.0018463246524333954,0.000990009866654873,0.0009678993374109268,0.0,0.0,0.0,0.0,0.0,0.0,0.0,0.0,0.0,-0.4547890164822942,0.12699276714833238,9.788617869116102,0.0,0.0,0.0,0.0,0.0,0.0,0.0,0.0,0.0
1702031407493189691,32,1702031407492977380,base_link,0.017981704683737474,0.014981579789581112,-0.6537764735743655,0.756325679297181,0.0,0.0,0.0,0.0,0.0,0.0,0.0,0.0,0.0,-0.0024139005690813065,0.0020551756024360657,-0.003293011337518692,0.0,0.0,0.0,0.0,0.0,0.0,0.0,0.0,0.0,-0.4283448480086304,0.08913483074763676,9.790228581250394,0.0,0.0,0.0,0.0,0.0,0.0,0.0,0.0,0.0
1702031407496591597,33,1702031407496318101,base_link,0.017982509531176374,0.014984853982589107,-0.6537789303656667,0.7563234716125147,0.0,0.0,0.0,0.0,0.0,0.0,0.0,0.0,0.0,-0.0024139005690813065,0.0020551756024360657,-0.003293011337518692,0.0,0.0,0.0,0.0,0.0,0.0,0.0,0.0,0.0,-0.4283448480086304,0.08913483074763676,9.790228581250394,0.0,0.0,0.0,0.0,0.0,0.0,0.0,0.0,0.0
1702031407500029026,34,1702031407499760150,base_link,0.017982509531176374,0.014984853982589107,-0.6537789303656667,0.7563234716125147,0.0,0.0,0.0,0.0,0.0,0.0,0.0,0.0,0.0,0.0007827794179320335,0.003120296634733677,0.0009681861847639084,0.0,0.0,0.0,0.0,0.0,0.0,0.0,0.0,0.0,-0.473885722246855,0.1051959307869545,9.787970481075044,0.0,0.0,0.0,0.0,0.0,0.0,0.0,0.0,0.0
1702031407503368186,35,1702031407503000497,base_link,0.01799646475313066,0.014990137654083859,-0.6537746487620465,0.7563267360510031,0.0,0.0,0.0,0.0,0.0,0.0,0.0,0.0,0.0,0.0007827794179320335,0.003120296634733677,0.0009681861847639084,0.0,0.0,0.0,0.0,0.0,0.0,0.0,0.0,0.0,-0.473885722246855,0.1051959307869545,9.787970481075044,0.0,0.0,0.0,0.0,0.0,0.0,0.0,0.0,0.0
1702031407506786582,36,1702031407506489753,base_link,0.01799646475313066,0.014990137654083859,-0.6537746487620465,0.7563267360510031,0.0,0.0,0.0,0.0,0.0,0.0,0.0,0.0,0.0,-0.002412138506770134,0.0009896131232380867,-9.693019092082977e-05,0.0,0.0,0.0,0.0,0.0,0.0,0.0,0.0,0.0,-0.4515393585919706,0.10302331563050199,9.789049923464425,0.0,0.0,0.0,0.0,0.0,0.0,0.0,0.0,0.0
1702031407509857346,37,1702031407509629249,base_link,0.017996693958912187,0.014989583921122852,-0.6537731501994909,0.7563280369381097,0.0,0.0,0.0,0.0,0.0,0.0,0.0,0.0,0.0,-0.002412138506770134,0.0009896131232380867,-9.693019092082977e-05,0.0,0.0,0.0,0.0,0.0,0.0,0.0,0.0,0.0,-0.4515393585919706,0.10302331563050199,9.789049923464425,0.0,0.0,0.0,0.0,0.0,0.0,0.0,0.0,0.0
1702031407513216212,38,1702031407513011693,base_link,0.017996693958912187,0.014989583921122852,-0.6537731501994909,0.7563280369381097,0.0,0.0,0.0,0.0,0.0,0.0,0.0,0.0,0.0,0.0007845256477594376,-7.574353367090225e-05,-9.679421782493591e-05,0.0,0.0,0.0,0.0,0.0,0.0,0.0,0.0,0.0,-0.4574615981021007,0.09130025763081193,9.788891313586971,0.0,0.0,0.0,0.0,0.0,0.0,0.0,0.0,0.0
1702031407516509893,39,1702031407516295433,base_link,0.017999112484013178,0.014991414209905967,-0.6537702043125311,0.7563304895367675,0.0,0.0,0.0,0.0,0.0,0.0,0.0,0.0,0.0,0.0007845256477594376,-7.574353367090225e-05,-9.679421782493591e-05,0.0,0.0,0.0,0.0,0.0,0.0,0.0,0.0,0.0,-0.4574615981021007,0.09130025763081193,9.788891313586971,0.0,0.0,0.0,0.0,0.0,0.0,0.0,0.0,0.0
1702031407520089721,40,1702031407519774436,base_link,0.017999112484013178,0.014991414209905967,-0.6537702043125311,0.7563304895367675,0.0,0.0,0.0,0.0,0.0,0.0,0.0,0.0,0.0,-0.00027988385409116745,-7.586833089590073e-05,-0.0022271759808063507,0.0,0.0,0.0,0.0,0.0,0.0,0.0,0.0,0.0,-0.43326449181771526,0.06218236904107512,9.790220387361584,0.0,0.0,0.0,0.0,0.0,0.0,0.0,0.0,0.0
1702031407523313646,41,1702031407523053169,base_link,0.01799895035558783,0.014987480375936904,-0.6537743050789879,0.7563270266469159,0.0,0.0,0.0,0.0,0.0,0.0,0.0,0.0,0.0,-0.00027988385409116745,-7.586833089590073e-05,-0.0022271759808063507,0.0,0.0,0.0,0.0,0.0,0.0,0.0,0.0,0.0,-0.43326449181771526,0.06218236904107512,9.790220387361584,0.0,0.0,0.0,0.0,0.0,0.0,0.0,0.0,0.0
1702031407526470835,42,1702031407526293039,base_link,0.01799895035558783,0.014987480375936904,-0.6537743050789879,0.7563270266469159,0.0,0.0,0.0,0.0,0.0,0.0,0.0,0.0,0.0,-0.003474818542599678,0.0031197862699627876,0.0009687617421150208,0.0,0.0,0.0,0.0,0.0,0.0,0.0,0.0,0.0,-0.47831701777448593,0.09778636954427326,9.787831764820984,0.0,0.0,0.0,0.0,0.0,0.0,0.0,0.0,0.0
1702031407529743268,43,1702031407529566049,base_link,0.01799590891617734,0.014993199620067703,-0.6537754441471306,0.7563260010456178,0.0,0.0,0.0,0.0,0.0,0.0,0.0,0.0,0.0,-0.003474818542599678,0.0031197862699627876,0.0009687617421150208,0.0,0.0,0.0,0.0,0.0,0.0,0.0,0.0,0.0,-0.47831701777448593,0.09778636954427326,9.787831764820984,0.0,0.0,0.0,0.0,0.0,0.0,0.0,0.0,0.0
1702031407533189210,44,1702031407532985448,base_link,0.01799590891617734,0.014993199620067703,-0.6537754441471306,0.7563260010456178,0.0,0.0,0.0,0.0,0.0,0.0,0.0,0.0,0.0,-0.0013434728607535362,-0.001141304150223732,-0.001161627471446991,0.0,0.0,0.0,0.0,0.0,0.0,0.0,0.0,0.0,-0.4666768078723373,0.14655030239633612,9.787785028588523,0.0,0.0,0.0,0.0,0.0,0.0,0.0,0.0,0.0
1702031407536561381,45,1702031407536318302,base_link,0.01800304847733545,0.014989228165757264,-0.6537767013092267,0.7563248231479274,0.0,0.0,0.0,0.0,0.0,0.0,0.0,0.0,0.0,-0.0013434728607535362,-0.001141304150223732,-0.001161627471446991,0.0,0.0,0.0,0.0,0.0,0.0,0.0,0.0,0.0,-0.4666768078723373,0.14655030239633612,9.787785028588523,0.0,0.0,0.0,0.0,0.0,0.0,0.0,0.0,0.0
1702031407540136052,46,1702031407539830446,base_link,0.01800304847733545,0.014989228165757264,-0.6537767013092267,0.7563248231479274,0.0,0.0,0.0,0.0,0.0,0.0,0.0,0.0,0.0,-0.0024078860878944397,-7.613282650709152e-05,-0.0022267624735832214,0.0,0.0,0.0,0.0,0.0,0.0,0.0,0.0,0.0,-0.4548649716964745,0.13330605268264129,9.78853039806496,0.0,0.0,0.0,0.0,0.0,0.0,0.0,0.0,0.0
1702031407543277546,47,1702031407543007373,base_link,0.018004538318003742,0.014993227938646561,-0.6537819146290842,0.7563202019117726,0.0,0.0,0.0,0.0,0.0,0.0,0.0,0.0,0.0,-0.0024078860878944397,-7.613282650709152e-05,-0.0022267624735832214,0.0,0.0,0.0,0.0,0.0,0.0,0.0,0.0,0.0,-0.4548649716964745,0.13330605268264129,9.78853039806496,0.0,0.0,0.0,0.0,0.0,0.0,0.0,0.0,0.0
1702031407546712709,48,1702031407546432495,base_link,0.018004538318003742,0.014993227938646561,-0.6537819146290842,0.7563202019117726,0.0,0.0,0.0,0.0,0.0,0.0,0.0,0.0,0.0,0.001854008063673973,-0.0022066961973905563,-0.002226639539003372,0.0,0.0,0.0,0.0,0.0,0.0,0.0,0.0,0.0,-0.45547093282023604,0.09743668858939997,9.78892498291169,0.0,0.0,0.0,0.0,0.0,0.0,0.0,0.0,0.0
1702031407549910758,49,1702031407549666881,base_link,0.018008880049455316,0.014988631521571597,-0.6537872509423877,0.7563155767731287,0.0,0.0,0.0,0.0,0.0,0.0,0.0,0.0,0.0,0.001854008063673973,-0.0022066961973905563,-0.002226639539003372,0.0,0.0,0.0,0.0,0.0,0.0,0.0,0.0,0.0,-0.45547093282023604,0.09743668858939997,9.78892498291169,0.0,0.0,0.0,0.0,0.0,0.0,0.0,0.0,0.0
1702031407554225628,50,1702031407553171873,base_link,0.018008880049455316,0.014988631521571597,-0.6537872509423877,0.7563155767731287,0.0,0.0,0.0,0.0,0.0,0.0,0.0,0.0,0.0,-0.00027568358927965164,-0.0022067679092288017,-0.001161240041255951,0.0,0.0,0.0,0.0,0.0,0.0,0.0,0.0,0.0,-0.42861337266802274,0.14454244089012133,9.789555559858256,0.0,0.0,0.0,0.0,0.0,0.0,0.0,0.0,0.0
1702031407556746603,51,1702031407556413888,base_link,0.018008824454287323,0.014979450010024462,-0.6537873752928685,0.756315652506831,0.0,0.0,0.0,0.0,0.0,0.0,0.0,0.0,0.0,-0.00027568358927965164,-0.0022067679092288017,-0.001161240041255951,0.0,0.0,0.0,0.0,0.0,0.0,0.0,0.0,0.0,-0.42861337266802274,0.14454244089012133,9.789555559858256,0.0,0.0,0.0,0.0,0.0,0.0,0.0,0.0,0.0
1702031407560250686,52,1702031407559832572,base_link,0.018008824454287323,0.014979450010024462,-0.6537873752928685,0.756315652506831,0.0,0.0,0.0,0.0,0.0,0.0,0.0,0.0,0.0,-0.002405337058007717,0.000988909974694252,0.000969424843788147,0.0,0.0,0.0,0.0,0.0,0.0,0.0,0.0,0.0,-0.42605383491437854,0.0937451258497616,9.790285490277297,0.0,0.0,0.0,0.0,0.0,0.0,0.0,0.0,0.0
1702031407563265877,53,1702031407562999725,base_link,0.017998140493916678,0.014975215224120627,-0.6537887790200542,0.7563147772556207,0.0,0.0,0.0,0.0,0.0,0.0,0.0,0.0,0.0,-0.002405337058007717,0.000988909974694252,0.000969424843788147,0.0,0.0,0.0,0.0,0.0,0.0,0.0,0.0,0.0,-0.42605383491437854,0.0937451258497616,9.790285490277297,0.0,0.0,0.0,0.0,0.0,0.0,0.0,0.0,0.0
1702031407566642245,54,1702031407566417694,base_link,0.017998140493916678,0.014975215224120627,-0.6537887790200542,0.7563147772556207,0.0,0.0,0.0,0.0,0.0,0.0,0.0,0.0,0.0,0.0007912879809737206,0.0020541343837976456,-9.570829570293427e-05,0.0,0.0,0.0,0.0,0.0,0.0,0.0,0.0,0.0,-0.4579865562808166,0.1659639498292012,9.787885587889917,0.0,0.0,0.0,0.0,0.0,0.0,0.0,0.0,0.0
1702031407570280859,55,1702031407569859266,base_link,0.0180012762532261,0.014975469363673796,-0.6537927606226132,0.7563112557195318,0.0,0.0,0.0,0.0,0.0,0.0,0.0,0.0,0.0,0.0007912879809737206,0.0020541343837976456,-9.570829570293427e-05,0.0,0.0,0.0,0.0,0.0,0.0,0.0,0.0,0.0,-0.4579865562808166,0.1659639498292012,9.787885587889917,0.0,0.0,0.0,0.0,0.0,0.0,0.0,0.0,0.0
1702031407573415582,56,1702031407573107481,base_link,0.0180012762532261,0.014975469363673796,-0.6537927606226132,0.7563112557195318,0.0,0.0,0.0,0.0,0.0,0.0,0.0,0.0,0.0,0.0007921196520328522,0.002054075710475445,-9.55779105424881e-05,0.0,0.0,0.0,0.0,0.0,0.0,0.0,0.0,0.0,-0.47312063334068527,0.12171166045092498,9.78781605558756,0.0,0.0,0.0,0.0,0.0,0.0,0.0,0.0,0.0
1702031407576520938,57,1702031407576280832,base_link,0.018005678263912042,0.014976992173883688,-0.653795262779186,0.756308957783243,0.0,0.0,0.0,0.0,0.0,0.0,0.0,0.0,0.0,0.0007921196520328522,0.002054075710475445,-9.55779105424881e-05,0.0,0.0,0.0,0.0,0.0,0.0,0.0,0.0,0.0,-0.47312063334068527,0.12171166045092498,9.78781605558756,0.0,0.0,0.0,0.0,0.0,0.0,0.0,0.0,0.0
1702031407579718973,58,1702031407579576253,base_link,0.018005678263912042,0.014976992173883688,-0.653795262779186,0.756308957783243,0.0,0.0,0.0,0.0,0.0,0.0,0.0,0.0,0.0,-0.0013375859707593918,0.002053980715572834,-9.543262422084808e-05,0.0,0.0,0.0,0.0,0.0,0.0,0.0,0.0,0.0,-0.39058941547682613,0.10329041759264727,9.791668448132372,0.0,0.0,0.0,0.0,0.0,0.0,0.0,0.0,0.0
1702031407583029418,59,1702031407582875251,base_link,0.018007937169610067,0.014975679528895985,-0.6537937351516586,0.7563102505572605,0.0,0.0,0.0,0.0,0.0,0.0,0.0,0.0,0.0,-0.0013375859707593918,0.002053980715572834,-9.543262422084808e-05,0.0,0.0,0.0,0.0,0.0,0.0,0.0,0.0,0.0,-0.39058941547682613,0.10329041759264727,9.791668448132372,0.0,0.0,0.0,0.0,0.0,0.0,0.0,0.0,0.0
1702031407586591364,60,1702031407586334943,base_link,0.018007937169610067,0.014975679528895985,-0.6537937351516586,0.7563102505572605,0.0,0.0,0.0,0.0,0.0,0.0,0.0,0.0,0.0,0.0018590744584798813,-7.66189768910408e-05,-0.001160571351647377,0.0,0.0,0.0,0.0,0.0,0.0,0.0,0.0,0.0,-0.4585332172449667,0.05460608138670769,9.789114641506584,0.0,0.0,0.0,0.0,0.0,0.0,0.0,0.0,0.0
1702031407590004312,61,1702031407589724063,base_link,0.018013056760182996,0.014977072628926905,-0.653792366908161,0.7563112838337444,0.0,0.0,0.0,0.0,0.0,0.0,0.0,0.0,0.0,0.0018590744584798813,-7.66189768910408e-05,-0.001160571351647377,0.0,0.0,0.0,0.0,0.0,0.0,0.0,0.0,0.0,-0.4585332172449667,0.05460608138670769,9.789114641506584,0.0,0.0,0.0,0.0,0.0,0.0,0.0,0.0,0.0
1702031407593594337,62,1702031407593183040,base_link,0.018013056760182996,0.014977072628926905,-0.653792366908161,0.7563112838337444,0.0,0.0,0.0,0.0,0.0,0.0,0.0,0.0,0.0,-0.0024011312052607536,0.0020537516102194786,-0.0011604242026805878,0.0,0.0,0.0,0.0,0.0,0.0,0.0,0.0,0.0,-0.4016072351511598,0.10547496068110987,9.791199449574275,0.0,0.0,0.0,0.0,0.0,0.0,0.0,0.0,0.0
1702031407596766812,63,1702031407596393108,base_link,0.018011078958478463,0.01498077467575199,-0.6537949068747838,0.7563090619379481,0.0,0.0,0.0,0.0,0.0,0.0,0.0,0.0,0.0,-0.0024011312052607536,0.0020537516102194786,-0.0011604242026805878,0.0,0.0,0.0,0.0,0.0,0.0,0.0,0.0,0.0,-0.4016072351511598,0.10547496068110987,9.791199449574275,0.0,0.0,0.0,0.0,0.0,0.0,0.0,0.0,0.0
1702031407599837535,64,1702031407599666595,base_link,0.018011078958478463,0.01498077467575199,-0.6537949068747838,0.7563090619379481,0.0,0.0,0.0,0.0,0.0,0.0,0.0,0.0,0.0,-0.0002697734162211418,0.002053679898381233,-0.0022255592048168182,0.0,0.0,0.0,0.0,0.0,0.0,0.0,0.0,0.0,-0.4525588515895176,0.1280307550480312,9.788707708968012,0.0,0.0,0.0,0.0,0.0,0.0,0.0,0.0,0.0
1702031407603015272,65,1702031407602877855,base_link,0.018020320640775068,0.014984897922177545,-0.6537959665177105,0.7563078440975199,0.0,0.0,0.0,0.0,0.0,0.0,0.0,0.0,0.0,-0.0002697734162211418,0.002053679898381233,-0.0022255592048168182,0.0,0.0,0.0,0.0,0.0,0.0,0.0,0.0,0.0,-0.4525588515895176,0.1280307550480312,9.788707708968012,0.0,0.0,0.0,0.0,0.0,0.0,0.0,0.0,0.0
1702031407606505249,66,1702031407606255292,base_link,0.018020320640775068,0.014984897922177545,-0.6537959665177105,0.7563078440975199,0.0,0.0,0.0,0.0,0.0,0.0,0.0,0.0,0.0,0.0007963674142956734,0.0009882599115371704,0.0009703729301691055,0.0,0.0,0.0,0.0,0.0,0.0,0.0,0.0,0.0,-0.42942212377233135,0.12170843390201821,9.78983062655999,0.0,0.0,0.0,0.0,0.0,0.0,0.0,0.0,0.0
1702031407609736148,67,1702031407609578132,base_link,0.018025421584292795,0.014979647708323877,-0.6537959829177645,0.7563078123699617,0.0,0.0,0.0,0.0,0.0,0.0,0.0,0.0,0.0,0.0007963674142956734,0.0009882599115371704,0.0009703729301691055,0.0,0.0,0.0,0.0,0.0,0.0,0.0,0.0,0.0,-0.42942212377233135,0.12170843390201821,9.78983062655999,0.0,0.0,0.0,0.0,0.0,0.0,0.0,0.0,0.0
1702031407613151635,68,1702031407612972497,base_link,0.018025421584292795,0.014979647708323877,-0.6537959829177645,0.7563078123699617,0.0,0.0,0.0,0.0,0.0,0.0,0.0,0.0,0.0,-0.0013333167880773544,-0.0011423435062170029,-9.476207196712494e-05,0.0,0.0,0.0,0.0,0.0,0.0,0.0,0.0,0.0,-0.4650444563394847,0.0756793982904432,9.788667237285285,0.0,0.0,0.0,0.0,0.0,0.0,0.0,0.0,0.0
1702031407616354911,69,1702031407616217613,base_link,0.018024757344365858,0.01498360135949223,-0.6537987237792868,0.7563053805160667,0.0,0.0,0.0,0.0,0.0,0.0,0.0,0.0,0.0,-0.0013333167880773544,-0.0011423435062170029,-9.476207196712494e-05,0.0,0.0,0.0,0.0,0.0,0.0,0.0,0.0,0.0,-0.4650444563394847,0.0756793982904432,9.788667237285285,0.0,0.0,0.0,0.0,0.0,0.0,0.0,0.0,0.0
1702031407619849463,70,1702031407619628429,base_link,0.018024757344365858,0.01498360135949223,-0.6537987237792868,0.7563053805160667,0.0,0.0,0.0,0.0,0.0,0.0,0.0,0.0,0.0,-0.0013324739411473274,0.000988083891570568,0.0009706392884254456,0.0,0.0,0.0,0.0,0.0,0.0,0.0,0.0,0.0,-0.47858873348911635,0.05684124757326009,9.788141902156488,0.0,0.0,0.0,0.0,0.0,0.0,0.0,0.0,0.0
1702031407623242511,71,1702031407622892856,base_link,0.01802527766223567,0.014986156601330134,-0.6537946002893769,0.7563088820766112,0.0,0.0,0.0,0.0,0.0,0.0,0.0,0.0,0.0,-0.0013324739411473274,0.000988083891570568,0.0009706392884254456,0.0,0.0,0.0,0.0,0.0,0.0,0.0,0.0,0.0,-0.47858873348911635,0.05684124757326009,9.788141902156488,0.0,0.0,0.0,0.0,0.0,0.0,0.0,0.0,0.0
1702031407626415558,72,1702031407626246452,base_link,0.01802527766223567,0.014986156601330134,-0.6537946002893769,0.7563088820766112,0.0,0.0,0.0,0.0,0.0,0.0,0.0,0.0,0.0,-0.0034621749073266983,-0.0011425241827964783,-0.0011597424745559692,0.0,0.0,0.0,0.0,0.0,0.0,0.0,0.0,0.0,-0.4793327233027843,0.1261526172225128,9.787457568620109,0.0,0.0,0.0,0.0,0.0,0.0,0.0,0.0,0.0
1702031407629662782,73,1702031407629531145,base_link,0.018019536293123053,0.014982638114964598,-0.6537958056148871,0.7563080466498274,0.0,0.0,0.0,0.0,0.0,0.0,0.0,0.0,0.0,-0.0034621749073266983,-0.0011425241827964783,-0.0011597424745559692,0.0,0.0,0.0,0.0,0.0,0.0,0.0,0.0,0.0,-0.4793327233027843,0.1261526172225128,9.787457568620109,0.0,0.0,0.0,0.0,0.0,0.0,0.0,0.0,0.0
1702031407632991862,74,1702031407632866382,base_link,0.018019536293123053,0.014982638114964598,-0.6537958056148871,0.7563080466498274,0.0,0.0,0.0,0.0,0.0,0.0,0.0,0.0,0.0,-0.0013308078050613403,-7.732491940259933e-05,0.0009709261357784271,0.0,0.0,0.0,0.0,0.0,0.0,0.0,0.0,0.0,-0.47354417557472017,0.12813628823205156,9.787713573936324,0.0,0.0,0.0,0.0,0.0,0.0,0.0,0.0,0.0
1702031407636446663,75,1702031407636206150,base_link,0.018019561890455813,0.014982192905065347,-0.6537957638503484,0.756308090963181,0.0,0.0,0.0,0.0,0.0,0.0,0.0,0.0,0.0,-0.0013308078050613403,-7.732491940259933e-05,0.0009709261357784271,0.0,0.0,0.0,0.0,0.0,0.0,0.0,0.0,0.0,-0.47354417557472017,0.12813628823205156,9.787713573936324,0.0,0.0,0.0,0.0,0.0,0.0,0.0,0.0,0.0
1702031407639714814,76,1702031407639548301,base_link,0.018019561890455813,0.014982192905065347,-0.6537957638503484,0.756308090963181,0.0,0.0,0.0,0.0,0.0,0.0,0.0,0.0,0.0,-0.0002647126093506813,-7.740501314401627e-05,-0.0011594705283641815,0.0,0.0,0.0,0.0,0.0,0.0,0.0,0.0,0.0,-0.44433587816072695,0.09653395024361557,9.789445685217807,0.0,0.0,0.0,0.0,0.0,0.0,0.0,0.0,0.0
1702031407642966523,77,1702031407642844200,base_link,0.018029148355505346,0.014976708549591293,-0.653795749378598,0.756307983631717,0.0,0.0,0.0,0.0,0.0,0.0,0.0,0.0,0.0,-0.0002647126093506813,-7.740501314401627e-05,-0.0011594705283641815,0.0,0.0,0.0,0.0,0.0,0.0,0.0,0.0,0.0,-0.44433587816072695,0.09653395024361557,9.789445685217807,0.0,0.0,0.0,0.0,0.0,0.0,0.0,0.0,0.0
1702031407646390535,78,1702031407646285295,base_link,0.018029148355505346,0.014976708549591293,-0.653795749378598,0.756307983631717,0.0,0.0,0.0,0.0,0.0,0.0,0.0,0.0,0.0,-0.0034596500918269157,-0.0011427607387304306,-9.407475590705872e-05,0.0,0.0,0.0,0.0,0.0,0.0,0.0,0.0,0.0,-0.5033837860868291,0.07981283930336533,9.786737693153283,0.0,0.0,0.0,0.0,0.0,0.0,0.0,0.0,0.0
1702031407649759183,79,1702031407649622440,base_link,0.018027400681939566,0.014983275301993186,-0.6537928001322889,0.7563104447123935,0.0,0.0,0.0,0.0,0.0,0.0,0.0,0.0,0.0,-0.0034596500918269157,-0.0011427607387304306,-9.407475590705872e-05,0.0,0.0,0.0,0.0,0.0,0.0,0.0,0.0,0.0,-0.5033837860868291,0.07981283930336533,9.786737693153283,0.0,0.0,0.0,0.0,0.0,0.0,0.0,0.0,0.0
1702031407653224330,80,1702031407652995347,base_link,0.018027400681939566,0.014983275301993186,-0.6537928001322889,0.7563104447123935,0.0,0.0,0.0,0.0,0.0,0.0,0.0,0.0,0.0,-0.00026300549507141113,0.0020529022440314293,-0.0011591967195272446,0.0,0.0,0.0,0.0,0.0,0.0,0.0,0.0,0.0,-0.47347640083630255,0.06399136423212184,9.788346397791345,0.0,0.0,0.0,0.0,0.0,0.0,0.0,0.0,0.0
1702031407656414402,81,1702031407656240224,base_link,0.018032695217965425,0.014988234268540797,-0.6537926227669769,0.7563103735584782,0.0,0.0,0.0,0.0,0.0,0.0,0.0,0.0,0.0,-0.00026300549507141113,0.0020529022440314293,-0.0011591967195272446,0.0,0.0,0.0,0.0,0.0,0.0,0.0,0.0,0.0,-0.47347640083630255,0.06399136423212184,9.788346397791345,0.0,0.0,0.0,0.0,0.0,0.0,0.0,0.0,0.0
1702031407659741334,82,1702031407659567117,base_link,0.018032695217965425,0.014988234268540797,-0.6537926227669769,0.7563103735584782,0.0,0.0,0.0,0.0,0.0,0.0,0.0,0.0,0.0,-0.0013274066150188446,-7.775705307722092e-05,0.0031020045280456543,0.0,0.0,0.0,0.0,0.0,0.0,0.0,0.0,0.0,-0.4552858343977207,0.13574297583831169,9.78847734090994,0.0,0.0,0.0,0.0,0.0,0.0,0.0,0.0,0.0
1702031407663028778,83,1702031407662908554,base_link,0.018037634223393433,0.01498646735165945,-0.6537884957229689,0.7563138584002267,0.0,0.0,0.0,0.0,0.0,0.0,0.0,0.0,0.0,-0.0013274066150188446,-7.775705307722092e-05,0.0031020045280456543,0.0,0.0,0.0,0.0,0.0,0.0,0.0,0.0,0.0,-0.4552858343977207,0.13574297583831169,9.78847734090994,0.0,0.0,0.0,0.0,0.0,0.0,0.0,0.0,0.0
1702031407666401161,84,1702031407666283607,base_link,0.018037634223393433,0.01498646735165945,-0.6537884957229689,0.7563138584002267,0.0,0.0,0.0,0.0,0.0,0.0,0.0,0.0,0.0,-0.0023918403312563896,-7.782969623804092e-05,-0.0011589191854000092,0.0,0.0,0.0,0.0,0.0,0.0,0.0,0.0,0.0,-0.4381892393249813,0.1308227772775212,9.789324572792813,0.0,0.0,0.0,0.0,0.0,0.0,0.0,0.0,0.0
1702031407669676925,85,1702031407669534683,base_link,0.018039392121166915,0.014986298965731875,-0.6537870956244342,0.756315030109924,0.0,0.0,0.0,0.0,0.0,0.0,0.0,0.0,0.0,-0.0023918403312563896,-7.782969623804092e-05,-0.0011589191854000092,0.0,0.0,0.0,0.0,0.0,0.0,0.0,0.0,0.0,-0.4381892393249813,0.1308227772775212,9.789324572792813,0.0,0.0,0.0,0.0,0.0,0.0,0.0,0.0,0.0
1702031407673083299,86,1702031407672921657,base_link,0.018039392121166915,0.014986298965731875,-0.6537870956244342,0.756315030109924,0.0,0.0,0.0,0.0,0.0,0.0,0.0,0.0,0.0,-0.001325739547610283,-7.791072130203247e-05,-0.002224050462245941,0.0,0.0,0.0,0.0,0.0,0.0,0.0,0.0,0.0,-0.5112503214388012,0.09654671763636398,9.786179123648942,0.0,0.0,0.0,0.0,0.0,0.0,0.0,0.0,0.0
1702031407676329608,87,1702031407676164627,base_link,0.018041851795038,0.01498964797729228,-0.6537909656920179,0.756311559621312,0.0,0.0,0.0,0.0,0.0,0.0,0.0,0.0,0.0,-0.001325739547610283,-7.791072130203247e-05,-0.002224050462245941,0.0,0.0,0.0,0.0,0.0,0.0,0.0,0.0,0.0,-0.5112503214388012,0.09654671763636398,9.786179123648942,0.0,0.0,0.0,0.0,0.0,0.0,0.0,0.0,0.0
1702031407679670584,88,1702031407679539918,base_link,0.018041851795038,0.01498964797729228,-0.6537909656920179,0.756311559621312,0.0,0.0,0.0,0.0,0.0,0.0,0.0,0.0,0.0,-0.0013249078765511513,-7.799174636602402e-05,0.0009718816727399826,0.0,0.0,0.0,0.0,0.0,0.0,0.0,0.0,0.0,-0.43293193197361945,0.10119532493694681,9.789909573049615,0.0,0.0,0.0,0.0,0.0,0.0,0.0,0.0,0.0
1702031407682982677,89,1702031407682862758,base_link,0.018041042152572205,0.014988232138355248,-0.6537907886352601,0.7563117600507748,0.0,0.0,0.0,0.0,0.0,0.0,0.0,0.0,0.0,-0.0013249078765511513,-7.799174636602402e-05,0.0009718816727399826,0.0,0.0,0.0,0.0,0.0,0.0,0.0,0.0,0.0,-0.43293193197361945,0.10119532493694681,9.789909573049615,0.0,0.0,0.0,0.0,0.0,0.0,0.0,0.0,0.0
1702031407686394381,90,1702031407686247110,base_link,0.018041042152572205,0.014988232138355248,-0.6537907886352601,0.7563117600507748,0.0,0.0,0.0,0.0,0.0,0.0,0.0,0.0,0.0,-0.0013240817934274673,0.004182938486337662,-9.324215352535248e-05,0.0,0.0,0.0,0.0,0.0,0.0,0.0,0.0,0.0,-0.46842907043918586,0.08514092703062684,9.788428128586933,0.0,0.0,0.0,0.0,0.0,0.0,0.0,0.0,0.0
1702031407689716378,91,1702031407689561605,base_link,0.018046009190314755,0.01499165255165371,-0.6537892302774568,0.756312920872891,0.0,0.0,0.0,0.0,0.0,0.0,0.0,0.0,0.0,-0.0013240817934274673,0.004182938486337662,-9.324215352535248e-05,0.0,0.0,0.0,0.0,0.0,0.0,0.0,0.0,0.0,-0.46842907043918586,0.08514092703062684,9.788428128586933,0.0,0.0,0.0,0.0,0.0,0.0,0.0,0.0,0.0
1702031407693094955,92,1702031407692893743,base_link,0.018046009190314755,0.01499165255165371,-0.6537892302774568,0.756312920872891,0.0,0.0,0.0,0.0,0.0,0.0,0.0,0.0,0.0,0.0018725665286183357,0.0009870706126093864,-9.311549365520477e-05,0.0,0.0,0.0,0.0,0.0,0.0,0.0,0.0,0.0,-0.4220668497283578,0.17562029564093998,9.789331799776702,0.0,0.0,0.0,0.0,0.0,0.0,0.0,0.0,0.0
1702031407696470309,93,1702031407696249485,base_link,0.018051003291103967,0.01498251723654492,-0.653787961481622,0.7563140795193133,0.0,0.0,0.0,0.0,0.0,0.0,0.0,0.0,0.0,0.0018725665286183357,0.0009870706126093864,-9.311549365520477e-05,0.0,0.0,0.0,0.0,0.0,0.0,0.0,0.0,0.0,-0.4220668497283578,0.17562029564093998,9.789331799776702,0.0,0.0,0.0,0.0,0.0,0.0,0.0,0.0,0.0
1702031407699878019,94,1702031407699640035,base_link,0.018051003291103967,0.01498251723654492,-0.653787961481622,0.7563140795193133,0.0,0.0,0.0,0.0,0.0,0.0,0.0,0.0,0.0,-0.0034529361873865128,-7.824786007404327e-05,-0.0011582393199205399,0.0,0.0,0.0,0.0,0.0,0.0,0.0,0.0,0.0,-0.4259222651159084,0.11507324294736476,9.790063757342756,0.0,0.0,0.0,0.0,0.0,0.0,0.0,0.0,0.0
1702031407703131828,95,1702031407702896833,base_link,0.018045177018135045,0.014987306924671831,-0.6537877500874602,0.7563143063919302,0.0,0.0,0.0,0.0,0.0,0.0,0.0,0.0,0.0,-0.0034529361873865128,-7.824786007404327e-05,-0.0011582393199205399,0.0,0.0,0.0,0.0,0.0,0.0,0.0,0.0,0.0,-0.4259222651159084,0.11507324294736476,9.790063757342756,0.0,0.0,0.0,0.0,0.0,0.0,0.0,0.0,0.0
1702031407706719593,96,1702031407706371784,base_link,0.018045177018135045,0.014987306924671831,-0.6537877500874602,0.7563143063919302,0.0,0.0,0.0,0.0,0.0,0.0,0.0,0.0,0.0,-0.0034521259367465973,-0.003274090588092804,-9.282678365707397e-05,0.0,0.0,0.0,0.0,0.0,0.0,0.0,0.0,0.0,-0.437754251915462,0.11165864173935441,9.789581378315157,0.0,0.0,0.0,0.0,0.0,0.0,0.0,0.0,0.0
1702031407709750438,97,1702031407709553241,base_link,0.018045132810859874,0.014986236546655068,-0.6537890788634881,0.7563131800086772,0.0,0.0,0.0,0.0,0.0,0.0,0.0,0.0,0.0,-0.0034521259367465973,-0.003274090588092804,-9.282678365707397e-05,0.0,0.0,0.0,0.0,0.0,0.0,0.0,0.0,0.0,-0.437754251915462,0.11165864173935441,9.789581378315157,0.0,0.0,0.0,0.0,0.0,0.0,0.0,0.0,0.0
1702031407713076882,98,1702031407712907552,base_link,0.018045132810859874,0.014986236546655068,-0.6537890788634881,0.7563131800086772,0.0,0.0,0.0,0.0,0.0,0.0,0.0,0.0,0.0,-0.0034513091668486595,-0.0032741399481892586,-0.0011579617857933044,0.0,0.0,0.0,0.0,0.0,0.0,0.0,0.0,0.0,-0.5062651583059479,0.040727696708771695,9.786829764750497,0.0,0.0,0.0,0.0,0.0,0.0,0.0,0.0,0.0
1702031407716383393,99,1702031407716202497,base_link,0.01803666099246121,0.014985853218148378,-0.6537890577703517,0.7563134079224848,0.0,0.0,0.0,0.0,0.0,0.0,0.0,0.0,0.0,-0.0034513091668486595,-0.0032741399481892586,-0.0011579617857933044,0.0,0.0,0.0,0.0,0.0,0.0,0.0,0.0,0.0,-0.5062651583059479,0.040727696708771695,9.786829764750497,0.0,0.0,0.0,0.0,0.0,0.0,0.0,0.0,0.0
1702031407719892607,100,1702031407719642162,base_link,0.01803666099246121,0.014985853218148378,-0.6537890577703517,0.7563134079224848,0.0,0.0,0.0,0.0,0.0,0.0,0.0,0.0,0.0,0.0018758485093712807,-7.84182921051979e-05,-0.002223104238510132,0.0,0.0,0.0,0.0,0.0,0.0,0.0,0.0,0.0,-0.4500888304625607,0.08935371215016226,9.789251041771166,0.0,0.0,0.0,0.0,0.0,0.0,0.0,0.0,0.0
1702031407723238671,101,1702031407722949743,base_link,0.018044065462311402,0.014978734640538859,-0.6537904763264569,0.756312146058084,0.0,0.0,0.0,0.0,0.0,0.0,0.0,0.0,0.0,0.0018758485093712807,-7.84182921051979e-05,-0.002223104238510132,0.0,0.0,0.0,0.0,0.0,0.0,0.0,0.0,0.0,-0.4500888304625607,0.08935371215016226,9.789251041771166,0.0,0.0,0.0,0.0,0.0,0.0,0.0,0.0,0.0
1702031407726507562,102,1702031407726311206,base_link,0.018044065462311402,0.014978734640538859,-0.6537904763264569,0.756312146058084,0.0,0.0,0.0,0.0,0.0,0.0,0.0,0.0,0.0,-0.002384376712143421,-0.0011437442153692245,-9.244121611118317e-05,0.0,0.0,0.0,0.0,0.0,0.0,0.0,0.0,0.0,-0.5058799203100383,0.12129671673635796,9.786182739594437,0.0,0.0,0.0,0.0,0.0,0.0,0.0,0.0,0.0
1702031407729725577,103,1702031407729559898,base_link,0.018045350917434408,0.014977502560752167,-0.6537917119632094,0.756311071646796,0.0,0.0,0.0,0.0,0.0,0.0,0.0,0.0,0.0,-0.002384376712143421,-0.0011437442153692245,-9.244121611118317e-05,0.0,0.0,0.0,0.0,0.0,0.0,0.0,0.0,0.0,-0.5058799203100383,0.12129671673635796,9.786182739594437,0.0,0.0,0.0,0.0,0.0,0.0,0.0,0.0,0.0
1702031407733191525,104,1702031407732985258,base_link,0.018045350917434408,0.014977502560752167,-0.6537917119632094,0.756311071646796,0.0,0.0,0.0,0.0,0.0,0.0,0.0,0.0,0.0,-0.00025301985442638397,-7.85505399107933e-05,-9.231269359588623e-05,0.0,0.0,0.0,0.0,0.0,0.0,0.0,0.0,0.0,-0.46478319175637617,0.07489449002067729,9.78868568297222,0.0,0.0,0.0,0.0,0.0,0.0,0.0,0.0,0.0
1702031407736544112,105,1702031407736309051,base_link,0.018047457635600495,0.014984828540067458,-0.653791629884252,0.7563109472166916,0.0,0.0,0.0,0.0,0.0,0.0,0.0,0.0,0.0,-0.00025301985442638397,-7.85505399107933e-05,-9.231269359588623e-05,0.0,0.0,0.0,0.0,0.0,0.0,0.0,0.0,0.0,-0.46478319175637617,0.07489449002067729,9.78868568297222,0.0,0.0,0.0,0.0,0.0,0.0,0.0,0.0,0.0
1702031407740068619,106,1702031407739732980,base_link,0.018047457635600495,0.014984828540067458,-0.653791629884252,0.7563109472166916,0.0,0.0,0.0,0.0,0.0,0.0,0.0,0.0,0.0,-0.002382720820605755,0.000986579805612564,-9.217113256454468e-05,0.0,0.0,0.0,0.0,0.0,0.0,0.0,0.0,0.0,-0.4697169533872059,0.14287174482545914,9.787693990324339,0.0,0.0,0.0,0.0,0.0,0.0,0.0,0.0,0.0
1702031407743472436,107,1702031407743093967,base_link,0.018050594249467936,0.014987690710203644,-0.653792743438784,0.7563098530372354,0.0,0.0,0.0,0.0,0.0,0.0,0.0,0.0,0.0,-0.002382720820605755,0.000986579805612564,-9.217113256454468e-05,0.0,0.0,0.0,0.0,0.0,0.0,0.0,0.0,0.0,-0.4697169533872059,0.14287174482545914,9.787693990324339,0.0,0.0,0.0,0.0,0.0,0.0,0.0,0.0,0.0
1702031407746792708,108,1702031407746474742,base_link,0.018050594249467936,0.014987690710203644,-0.653792743438784,0.7563098530372354,0.0,0.0,0.0,0.0,0.0,0.0,0.0,0.0,0.0,-0.0013166340067982674,-7.878243923187256e-05,-9.203515946865082e-05,0.0,0.0,0.0,0.0,0.0,0.0,0.0,0.0,0.0,-0.5076051948460547,0.07583969926858829,9.786551246796808,0.0,0.0,0.0,0.0,0.0,0.0,0.0,0.0,0.0
1702031407749998231,109,1702031407749667167,base_link,0.01805250216729001,0.014993380414907631,-0.6537925407903513,0.7563098699052727,0.0,0.0,0.0,0.0,0.0,0.0,0.0,0.0,0.0,-0.0013166340067982674,-7.878243923187256e-05,-9.203515946865082e-05,0.0,0.0,0.0,0.0,0.0,0.0,0.0,0.0,0.0,-0.5076051948460547,0.07583969926858829,9.786551246796808,0.0,0.0,0.0,0.0,0.0,0.0,0.0,0.0,0.0
1702031407753485632,110,1702031407753100633,base_link,0.01805250216729001,0.014993380414907631,-0.6537925407903513,0.7563098699052727,0.0,0.0,0.0,0.0,0.0,0.0,0.0,0.0,0.0,-0.002381077967584133,0.0031168777495622635,-9.188801050186157e-05,0.0,0.0,0.0,0.0,0.0,0.0,0.0,0.0,0.0,-0.44339150739264593,0.12869089834629388,9.78911858258214,0.0,0.0,0.0,0.0,0.0,0.0,0.0,0.0,0.0
1702031407756716423,111,1702031407756337404,base_link,0.018056261718394907,0.015000513742662463,-0.6537950848322212,0.7563074395042281,0.0,0.0,0.0,0.0,0.0,0.0,0.0,0.0,0.0,-0.002381077967584133,0.0031168777495622635,-9.188801050186157e-05,0.0,0.0,0.0,0.0,0.0,0.0,0.0,0.0,0.0,-0.44339150739264593,0.12869089834629388,9.78911858258214,0.0,0.0,0.0,0.0,0.0,0.0,0.0,0.0,0.0
1702031407760142818,112,1702031407759762763,base_link,0.018056261718394907,0.015000513742662463,-0.6537950848322212,0.7563074395042281,0.0,0.0,0.0,0.0,0.0,0.0,0.0,0.0,0.0,-0.0013150004670023918,-0.0022094910964369774,-9.175948798656464e-05,0.0,0.0,0.0,0.0,0.0,0.0,0.0,0.0,0.0,-0.4137398473395583,0.13646694253724867,9.790311338885909,0.0,0.0,0.0,0.0,0.0,0.0,0.0,0.0,0.0
1702031407763519572,113,1702031407762989044,base_link,0.018054990851087593,0.014993128382172557,-0.6537938624679795,0.756308672967515,0.0,0.0,0.0,0.0,0.0,0.0,0.0,0.0,0.0,-0.0013150004670023918,-0.0022094910964369774,-9.175948798656464e-05,0.0,0.0,0.0,0.0,0.0,0.0,0.0,0.0,0.0,-0.4137398473395583,0.13646694253724867,9.790311338885909,0.0,0.0,0.0,0.0,0.0,0.0,0.0,0.0,0.0
1702031407766720843,114,1702031407766424179,base_link,0.018054990851087593,0.014993128382172557,-0.6537938624679795,0.756308672967515,0.0,0.0,0.0,0.0,0.0,0.0,0.0,0.0,0.0,0.0008163768798112869,0.0009862370789051056,-0.001156901940703392,0.0,0.0,0.0,0.0,0.0,0.0,0.0,0.0,0.0,-0.45291723371304343,0.06401260633748634,9.78931909611877,0.0,0.0,0.0,0.0,0.0,0.0,0.0,0.0,0.0
1702031407770213762,115,1702031407769735097,base_link,0.01805754560383685,0.014993446001534894,-0.6537939656396343,0.7563085164910975,0.0,0.0,0.0,0.0,0.0,0.0,0.0,0.0,0.0,0.0008163768798112869,0.0009862370789051056,-0.001156901940703392,0.0,0.0,0.0,0.0,0.0,0.0,0.0,0.0,0.0,-0.45291723371304343,0.06401260633748634,9.78931909611877,0.0,0.0,0.0,0.0,0.0,0.0,0.0,0.0,0.0
1702031407773678392,116,1702031407773277997,base_link,0.01805754560383685,0.014993446001534894,-0.6537939656396343,0.7563085164910975,0.0,0.0,0.0,0.0,0.0,0.0,0.0,0.0,0.0,-0.0023786015808582306,-0.0011443383991718292,-0.0032873060554265976,0.0,0.0,0.0,0.0,0.0,0.0,0.0,0.0,0.0,-0.43573633374379855,0.10827070597245424,9.789709459513276,0.0,0.0,0.0,0.0,0.0,0.0,0.0,0.0,0.0
1702031407776803933,117,1702031407776406049,base_link,0.018061250052027685,0.0149915941024177,-0.6537951708893996,0.7563074228609207,0.0,0.0,0.0,0.0,0.0,0.0,0.0,0.0,0.0,-0.0023786015808582306,-0.0011443383991718292,-0.0032873060554265976,0.0,0.0,0.0,0.0,0.0,0.0,0.0,0.0,0.0,-0.43573633374379855,0.10827070597245424,9.789709459513276,0.0,0.0,0.0,0.0,0.0,0.0,0.0,0.0,0.0
1702031407780138881,118,1702031407779803037,base_link,0.018061250052027685,0.0149915941024177,-0.6537951708893996,0.7563074228609207,0.0,0.0,0.0,0.0,0.0,0.0,0.0,0.0,0.0,-0.00024722330272197723,-0.0022097090259194374,-9.138509631156921e-05,0.0,0.0,0.0,0.0,0.0,0.0,0.0,0.0,0.0,-0.4374384329723825,0.08727148061931493,9.789843272802134,0.0,0.0,0.0,0.0,0.0,0.0,0.0,0.0,0.0
1702031407783378851,119,1702031407783030271,base_link,0.018057053155136435,0.014985203146038786,-0.6537964864115078,0.7563065125159188,0.0,0.0,0.0,0.0,0.0,0.0,0.0,0.0,0.0,-0.00024722330272197723,-0.0022097090259194374,-9.138509631156921e-05,0.0,0.0,0.0,0.0,0.0,0.0,0.0,0.0,0.0,-0.4374384329723825,0.08727148061931493,9.789843272802134,0.0,0.0,0.0,0.0,0.0,0.0,0.0,0.0,0.0
1702031407786910476,120,1702031407786521196,base_link,0.018057053155136435,0.014985203146038786,-0.6537964864115078,0.7563065125159188,0.0,0.0,0.0,0.0,0.0,0.0,0.0,0.0,0.0,0.0008188756182789803,0.0020512351766228676,0.0020392779260873795,0.0,0.0,0.0,0.0,0.0,0.0,0.0,0.0,0.0,-0.5127748016010165,0.11388375704851464,9.785912961636415,0.0,0.0,0.0,0.0,0.0,0.0,0.0,0.0,0.0
1702031407789979233,121,1702031407789690971,base_link,0.018064340416574357,0.014982854417380127,-0.6537937371969619,0.7563087616052401,0.0,0.0,0.0,0.0,0.0,0.0,0.0,0.0,0.0,0.0008188756182789803,0.0020512351766228676,0.0020392779260873795,0.0,0.0,0.0,0.0,0.0,0.0,0.0,0.0,0.0,-0.5127748016010165,0.11388375704851464,9.785912961636415,0.0,0.0,0.0,0.0,0.0,0.0,0.0,0.0,0.0
1702031407793445617,122,1702031407793101549,base_link,0.018064340416574357,0.014982854417380127,-0.6537937371969619,0.7563087616052401,0.0,0.0,0.0,0.0,0.0,0.0,0.0,0.0,0.0,-0.001310816965997219,-7.937662303447723e-05,0.002039412036538124,0.0,0.0,0.0,0.0,0.0,0.0,0.0,0.0,0.0,-0.38807181402470664,0.08990008522279076,9.79190064501456,0.0,0.0,0.0,0.0,0.0,0.0,0.0,0.0,0.0
1702031407796593502,123,1702031407796316623,base_link,0.018059826700622887,0.014986510378188185,-0.6537909850583653,0.7563111760529792,0.0,0.0,0.0,0.0,0.0,0.0,0.0,0.0,0.0,-0.001310816965997219,-7.937662303447723e-05,0.002039412036538124,0.0,0.0,0.0,0.0,0.0,0.0,0.0,0.0,0.0,-0.38807181402470664,0.08990008522279076,9.79190064501456,0.0,0.0,0.0,0.0,0.0,0.0,0.0,0.0,0.0
1702031407800052788,124,1702031407799749851,base_link,0.018059826700622887,0.014986510378188185,-0.6537909850583653,0.7563111760529792,0.0,0.0,0.0,0.0,0.0,0.0,0.0,0.0,0.0,-0.001309986226260662,0.0009857648983597755,0.002039557322859764,0.0,0.0,0.0,0.0,0.0,0.0,0.0,0.0,0.0,-0.4552140912738171,0.06401190971569182,9.789212563149311,0.0,0.0,0.0,0.0,0.0,0.0,0.0,0.0,0.0
1702031407803319892,125,1702031407802993774,base_link,0.018054818635848683,0.014989721467834477,-0.6537895482439784,0.7563124740352217,0.0,0.0,0.0,0.0,0.0,0.0,0.0,0.0,0.0,-0.001309986226260662,0.0009857648983597755,0.002039557322859764,0.0,0.0,0.0,0.0,0.0,0.0,0.0,0.0,0.0,-0.4552140912738171,0.06401190971569182,9.789212563149311,0.0,0.0,0.0,0.0,0.0,0.0,0.0,0.0,0.0
1702031407806738295,126,1702031407806442737,base_link,0.018054818635848683,0.014989721467834477,-0.6537895482439784,0.7563124740352217,0.0,0.0,0.0,0.0,0.0,0.0,0.0,0.0,0.0,-0.0023744693025946617,0.0009856987744569778,-0.002221362665295601,0.0,0.0,0.0,0.0,0.0,0.0,0.0,0.0,0.0,-0.4894615720181234,0.10460620631383452,9.787210272141811,0.0,0.0,0.0,0.0,0.0,0.0,0.0,0.0,0.0
1702031407810036620,127,1702031407809662818,base_link,0.01805555308568514,0.014991299411377296,-0.653787960469208,0.7563137977653468,0.0,0.0,0.0,0.0,0.0,0.0,0.0,0.0,0.0,-0.0023744693025946617,0.0009856987744569778,-0.002221362665295601,0.0,0.0,0.0,0.0,0.0,0.0,0.0,0.0,0.0,-0.4894615720181234,0.10460620631383452,9.787210272141811,0.0,0.0,0.0,0.0,0.0,0.0,0.0,0.0,0.0
1702031407813374098,128,1702031407813096523,base_link,0.01805555308568514,0.014991299411377296,-0.653787960469208,0.7563137977653468,0.0,0.0,0.0,0.0,0.0,0.0,0.0,0.0,0.0,0.0008221697062253952,-0.001144920475780964,-9.070150554180145e-05,0.0,0.0,0.0,0.0,0.0,0.0,0.0,0.0,0.0,-0.44153952659228424,0.1419649296392752,9.789018786640934,0.0,0.0,0.0,0.0,0.0,0.0,0.0,0.0,0.0
1702031407816683594,129,1702031407816321134,base_link,0.018061490590425253,0.014988848563297389,-0.6537837994727613,0.7563173014835498,0.0,0.0,0.0,0.0,0.0,0.0,0.0,0.0,0.0,0.0008221697062253952,-0.001144920475780964,-9.070150554180145e-05,0.0,0.0,0.0,0.0,0.0,0.0,0.0,0.0,0.0,-0.44153952659228424,0.1419649296392752,9.789018786640934,0.0,0.0,0.0,0.0,0.0,0.0,0.0,0.0,0.0
1702031407820097521,130,1702031407819754123,base_link,0.018061490590425253,0.014988848563297389,-0.6537837994727613,0.7563173014835498,0.0,0.0,0.0,0.0,0.0,0.0,0.0,0.0,0.0,-0.0002422397956252098,-0.0011450545862317085,0.002039967104792595,0.0,0.0,0.0,0.0,0.0,0.0,0.0,0.0,0.0,-0.4755206916420164,0.08895010230195546,9.788052306313078,0.0,0.0,0.0,0.0,0.0,0.0,0.0,0.0,0.0
1702031407823283903,131,1702031407823007583,base_link,0.018064515759439195,0.014987839527125851,-0.653783778508543,0.756317267352649,0.0,0.0,0.0,0.0,0.0,0.0,0.0,0.0,0.0,-0.0002422397956252098,-0.0011450545862317085,0.002039967104792595,0.0,0.0,0.0,0.0,0.0,0.0,0.0,0.0,0.0,-0.4755206916420164,0.08895010230195546,9.788052306313078,0.0,0.0,0.0,0.0,0.0,0.0,0.0,0.0,0.0
1702031407826716584,132,1702031407826421976,base_link,0.018064515759439195,0.014987839527125851,-0.653783778508543,0.756317267352649,0.0,0.0,0.0,0.0,0.0,0.0,0.0,0.0,0.0,-0.0034372294321656227,0.0009853821247816086,0.0020401105284690857,0.0,0.0,0.0,0.0,0.0,0.0,0.0,0.0,0.0,-0.4920480831252265,0.1281836751755252,9.786800173157276,0.0,0.0,0.0,0.0,0.0,0.0,0.0,0.0,0.0
1702031407829877255,133,1702031407829633712,base_link,0.018069917000672817,0.014987642061478519,-0.6537824415144374,0.756318297975427,0.0,0.0,0.0,0.0,0.0,0.0,0.0,0.0,0.0,-0.0034372294321656227,0.0009853821247816086,0.0020401105284690857,0.0,0.0,0.0,0.0,0.0,0.0,0.0,0.0,0.0,-0.4920480831252265,0.1281836751755252,9.786800173157276,0.0,0.0,0.0,0.0,0.0,0.0,0.0,0.0,0.0
1702031407833337318,134,1702031407833073139,base_link,0.018069917000672817,0.014987642061478519,-0.6537824415144374,0.756318297975427,0.0,0.0,0.0,0.0,0.0,0.0,0.0,0.0,0.0,-0.003436439670622349,0.0031158505007624626,-0.004351358860731125,0.0,0.0,0.0,0.0,0.0,0.0,0.0,0.0,0.0,-0.39326995632068945,0.09588549989165092,9.791636467535241,0.0,0.0,0.0,0.0,0.0,0.0,0.0,0.0,0.0
1702031407836632935,135,1702031407836312770,base_link,0.01807161465280269,0.014988533904283438,-0.6537876643918689,0.7563137249080343,0.0,0.0,0.0,0.0,0.0,0.0,0.0,0.0,0.0,-0.003436439670622349,0.0031158505007624626,-0.004351358860731125,0.0,0.0,0.0,0.0,0.0,0.0,0.0,0.0,0.0,-0.39326995632068945,0.09588549989165092,9.791636467535241,0.0,0.0,0.0,0.0,0.0,0.0,0.0,0.0,0.0
1702031407840109817,136,1702031407839765548,base_link,0.01807161465280269,0.014988533904283438,-0.6537876643918689,0.7563137249080343,0.0,0.0,0.0,0.0,0.0,0.0,0.0,0.0,0.0,-0.00023981742560863495,0.0009852275252342224,-0.0011554472148418427,0.0,0.0,0.0,0.0,0.0,0.0,0.0,0.0,0.0,-0.47390226130794566,0.09876721352020162,9.788036661366808,0.0,0.0,0.0,0.0,0.0,0.0,0.0,0.0,0.0
1702031407843261919,137,1702031407842986822,base_link,0.0180725028112701,0.014984223896755872,-0.6537891083063787,0.7563125409090468,0.0,0.0,0.0,0.0,0.0,0.0,0.0,0.0,0.0,-0.00023981742560863495,0.0009852275252342224,-0.0011554472148418427,0.0,0.0,0.0,0.0,0.0,0.0,0.0,0.0,0.0,-0.47390226130794566,0.09876721352020162,9.788036661366808,0.0,0.0,0.0,0.0,0.0,0.0,0.0,0.0,0.0
1702031407847026950,138,1702031407846581220,base_link,0.0180725028112701,0.014984223896755872,-0.6537891083063787,0.7563125409090468,0.0,0.0,0.0,0.0,0.0,0.0,0.0,0.0,0.0,-0.00023900624364614487,0.0031156837940216064,-0.0022205933928489685,0.0,0.0,0.0,0.0,0.0,0.0,0.0,0.0,0.0,-0.4584196763196907,0.15684975421115252,9.788015608639315,0.0,0.0,0.0,0.0,0.0,0.0,0.0,0.0,0.0
1702031407850037661,139,1702031407849711894,base_link,0.018077707424680928,0.0149920745484242,-0.653792750872343,0.7563091121372112,0.0,0.0,0.0,0.0,0.0,0.0,0.0,0.0,0.0,-0.00023900624364614487,0.0031156837940216064,-0.0022205933928489685,0.0,0.0,0.0,0.0,0.0,0.0,0.0,0.0,0.0,-0.4584196763196907,0.15684975421115252,9.788015608639315,0.0,0.0,0.0,0.0,0.0,0.0,0.0,0.0,0.0
1702031407853488739,140,1702031407853137969,base_link,0.018077707424680928,0.0149920745484242,-0.653792750872343,0.7563091121372112,0.0,0.0,0.0,0.0,0.0,0.0,0.0,0.0,0.0,0.0018923040479421616,-0.0011454299092292786,-0.003285730257630348,0.0,0.0,0.0,0.0,0.0,0.0,0.0,0.0,0.0,-0.49572597760818116,0.0962182826941688,9.786981035906825,0.0,0.0,0.0,0.0,0.0,0.0,0.0,0.0,0.0
1702031407856831514,141,1702031407856421470,base_link,0.018081702436250006,0.014993181682496368,-0.653798128270662,0.7563043461529371,0.0,0.0,0.0,0.0,0.0,0.0,0.0,0.0,0.0,0.0018923040479421616,-0.0011454299092292786,-0.003285730257630348,0.0,0.0,0.0,0.0,0.0,0.0,0.0,0.0,0.0,-0.49572597760818116,0.0962182826941688,9.786981035906825,0.0,0.0,0.0,0.0,0.0,0.0,0.0,0.0,0.0
1702031407860103079,142,1702031407859804868,base_link,0.018081702436250006,0.014993181682496368,-0.653798128270662,0.7563043461529371,0.0,0.0,0.0,0.0,0.0,0.0,0.0,0.0,0.0,-0.0013027042150497437,0.0009850114583969116,-0.001155063509941101,0.0,0.0,0.0,0.0,0.0,0.0,0.0,0.0,0.0,-0.45227823984359145,0.08933204226612107,9.789150329828866,0.0,0.0,0.0,0.0,0.0,0.0,0.0,0.0,0.0
1702031407863229021,143,1702031407862983942,base_link,0.018075996566333862,0.014991357674733133,-0.6537978922340247,0.7563047227497316,0.0,0.0,0.0,0.0,0.0,0.0,0.0,0.0,0.0,-0.0013027042150497437,0.0009850114583969116,-0.001155063509941101,0.0,0.0,0.0,0.0,0.0,0.0,0.0,0.0,0.0,-0.45227823984359145,0.08933204226612107,9.789150329828866,0.0,0.0,0.0,0.0,0.0,0.0,0.0,0.0,0.0
1702031407866735795,144,1702031407866452217,base_link,0.018075996566333862,0.014991357674733133,-0.6537978922340247,0.7563047227497316,0.0,0.0,0.0,0.0,0.0,0.0,0.0,0.0,0.0,-0.0023671668022871017,0.00418069027364254,-8.965283632278442e-05,0.0,0.0,0.0,0.0,0.0,0.0,0.0,0.0,0.0,-0.4696026453423557,0.16897126030554904,9.787283692050528,0.0,0.0,0.0,0.0,0.0,0.0,0.0,0.0,0.0
1702031407870135938,145,1702031407869721889,base_link,0.018078234141586443,0.014993342307516744,-0.6538017874896463,0.756301262601164,0.0,0.0,0.0,0.0,0.0,0.0,0.0,0.0,0.0,-0.0023671668022871017,0.00418069027364254,-8.965283632278442e-05,0.0,0.0,0.0,0.0,0.0,0.0,0.0,0.0,0.0,-0.4696026453423557,0.16897126030554904,9.787283692050528,0.0,0.0,0.0,0.0,0.0,0.0,0.0,0.0,0.0
1702031407873484409,146,1702031407873119592,base_link,0.018078234141586443,0.014993342307516744,-0.6538017874896463,0.756301262601164,0.0,0.0,0.0,0.0,0.0,0.0,0.0,0.0,0.0,-0.003431667573750019,-0.0011456282809376717,-8.95187258720398e-05,0.0,0.0,0.0,0.0,0.0,0.0,0.0,0.0,0.0,-0.49126363947010165,0.08007741662932354,9.78735141107545,0.0,0.0,0.0,0.0,0.0,0.0,0.0,0.0,0.0
1702031407876679259,147,1702031407876367807,base_link,0.018079378692397292,0.01500201655977785,-0.653800116194711,0.7563025080144976,0.0,0.0,0.0,0.0,0.0,0.0,0.0,0.0,0.0,-0.003431667573750019,-0.0011456282809376717,-8.95187258720398e-05,0.0,0.0,0.0,0.0,0.0,0.0,0.0,0.0,0.0,-0.49126363947010165,0.08007741662932354,9.78735141107545,0.0,0.0,0.0,0.0,0.0,0.0,0.0,0.0,0.0
1702031407883635506,148,1702031407883071184,base_link,0.018079378692397292,0.01500201655977785,-0.653800116194711,0.7563025080144976,0.0,0.0,0.0,0.0,0.0,0.0,0.0,0.0,0.0,0.0008302014321088791,-0.0032762447372078896,-0.0011546537280082703,0.0,0.0,0.0,0.0,0.0,0.0,0.0,0.0,0.0,-0.39447321686220405,0.06349743977342912,9.791851661270234,0.0,0.0,0.0,0.0,0.0,0.0,0.0,0.0,0.0
1702031407883647264,149,1702031407883301734,base_link,0.018075038463581865,0.014998026328894796,-0.6538001273593039,0.7563026812432545,0.0,0.0,0.0,0.0,0.0,0.0,0.0,0.0,0.0,0.0008302014321088791,-0.0032762447372078896,-0.0011546537280082703,0.0,0.0,0.0,0.0,0.0,0.0,0.0,0.0,0.0,-0.39447321686220405,0.06349743977342912,9.791851661270234,0.0,0.0,0.0,0.0,0.0,0.0,0.0,0.0,0.0
1702031407886877655,150,1702031407886490345,base_link,0.018075038463581865,0.014998026328894796,-0.6538001273593039,0.7563026812432545,0.0,0.0,0.0,0.0,0.0,0.0,0.0,0.0,0.0,-0.0012995461001992226,-0.0032762987539172173,-0.002219781279563904,0.0,0.0,0.0,0.0,0.0,0.0,0.0,0.0,0.0,-0.5421964224150202,0.10280800846916109,9.784449578433883,0.0,0.0,0.0,0.0,0.0,0.0,0.0,0.0,0.0
1702031407890021616,151,1702031407889683723,base_link,0.018071894982405894,0.014993445832791526,-0.6537986942652295,0.7563040860466674,0.0,0.0,0.0,0.0,0.0,0.0,0.0,0.0,0.0,-0.0012995461001992226,-0.0032762987539172173,-0.002219781279563904,0.0,0.0,0.0,0.0,0.0,0.0,0.0,0.0,0.0,-0.5421964224150202,0.10280800846916109,9.784449578433883,0.0,0.0,0.0,0.0,0.0,0.0,0.0,0.0,0.0
1702031407897091683,152,1702031407896453857,base_link,0.018071894982405894,0.014993445832791526,-0.6537986942652295,0.7563040860466674,0.0,0.0,0.0,0.0,0.0,0.0,0.0,0.0,0.0,0.0029623801819980145,0.0009846435859799385,0.0031066685914993286,0.0,0.0,0.0,0.0,0.0,0.0,0.0,0.0,0.0,-0.4857110599578928,0.07036771904213457,9.787703160106123,0.0,0.0,0.0,0.0,0.0,0.0,0.0,0.0,0.0
1702031407897105909,153,1702031407896706104,base_link,0.018081064585725195,0.014997821686616989,-0.6538000508259003,0.756302607418587,0.0,0.0,0.0,0.0,0.0,0.0,0.0,0.0,0.0,0.0029623801819980145,0.0009846435859799385,0.0031066685914993286,0.0,0.0,0.0,0.0,0.0,0.0,0.0,0.0,0.0,-0.4857110599578928,0.07036771904213457,9.787703160106123,0.0,0.0,0.0,0.0,0.0,0.0,0.0,0.0,0.0
1702031407903906363,154,1702031407903206586,base_link,0.018081064585725195,0.014997821686616989,-0.6538000508259003,0.756302607418587,0.0,0.0,0.0,0.0,0.0,0.0,0.0,0.0,0.0,-0.002363148145377636,-8.072331547737122e-05,0.004172075539827347,0.0,0.0,0.0,0.0,0.0,0.0,0.0,0.0,0.0,-0.40867093190402515,0.12169121156664744,9.790719039909387,0.0,0.0,0.0,0.0,0.0,0.0,0.0,0.0,0.0
1702031407903915183,155,1702031407903586149,base_link,0.018087058821393456,0.01499398243466609,-0.6537959668972223,0.7563060706241003,0.0,0.0,0.0,0.0,0.0,0.0,0.0,0.0,0.0,-0.002363148145377636,-8.072331547737122e-05,0.004172075539827347,0.0,0.0,0.0,0.0,0.0,0.0,0.0,0.0,0.0,-0.40867093190402515,0.12169121156664744,9.790719039909387,0.0,0.0,0.0,0.0,0.0,0.0,0.0,0.0,0.0
1702031407906843403,156,1702031407906468391,base_link,0.018087058821393456,0.01499398243466609,-0.6537959668972223,0.7563060706241003,0.0,0.0,0.0,0.0,0.0,0.0,0.0,0.0,0.0,-0.00023180246353149414,-0.0011460436508059502,-0.001154135912656784,0.0,0.0,0.0,0.0,0.0,0.0,0.0,0.0,0.0,-0.4572098669586536,0.11308304948266694,9.788675669439423,0.0,0.0,0.0,0.0,0.0,0.0,0.0,0.0,0.0
1702031407909922168,157,1702031407909661769,base_link,0.018089045015332775,0.014997506154896416,-0.6537999326410561,0.7563025250110683,0.0,0.0,0.0,0.0,0.0,0.0,0.0,0.0,0.0,-0.00023180246353149414,-0.0011460436508059502,-0.001154135912656784,0.0,0.0,0.0,0.0,0.0,0.0,0.0,0.0,0.0,-0.4572098669586536,0.11308304948266694,9.788675669439423,0.0,0.0,0.0,0.0,0.0,0.0,0.0,0.0,0.0
1702031407916992651,158,1702031407916421175,base_link,0.018089045015332775,0.014997506154896416,-0.6537999326410561,0.7563025250110683,0.0,0.0,0.0,0.0,0.0,0.0,0.0,0.0,0.0,-0.00023100152611732483,0.0020496295765042305,0.0009765289723873138,0.0,0.0,0.0,0.0,0.0,0.0,0.0,0.0,0.0,-0.4988146118952408,0.07981474706545529,9.786971625028384,0.0,0.0,0.0,0.0,0.0,0.0,0.0,0.0,0.0
1702031407916998769,159,1702031407916675329,base_link,0.01809661418418035,0.01501054584751,-0.6537954819349711,0.7563059327215725,0.0,0.0,0.0,0.0,0.0,0.0,0.0,0.0,0.0,-0.00023100152611732483,0.0020496295765042305,0.0009765289723873138,0.0,0.0,0.0,0.0,0.0,0.0,0.0,0.0,0.0,-0.4988146118952408,0.07981474706545529,9.786971625028384,0.0,0.0,0.0,0.0,0.0,0.0,0.0,0.0,0.0
1702031407924001130,160,1702031407923271179,base_link,0.01809661418418035,0.01501054584751,-0.6537954819349711,0.7563059327215725,0.0,0.0,0.0,0.0,0.0,0.0,0.0,0.0,0.0,-0.00023018475621938705,-8.104555308818817e-05,-8.859485387802124e-05,0.0,0.0,0.0,0.0,0.0,0.0,0.0,0.0,0.0,-0.4120935669027186,0.15590180580619467,9.790090577674128,0.0,0.0,0.0,0.0,0.0,0.0,0.0,0.0,0.0
1702031407924014901,161,1702031407923625469,base_link,0.018095498375611446,0.015005961833352077,-0.6537927472443121,0.7563084144042888,0.0,0.0,0.0,0.0,0.0,0.0,0.0,0.0,0.0,-0.00023018475621938705,-8.104555308818817e-05,-8.859485387802124e-05,0.0,0.0,0.0,0.0,0.0,0.0,0.0,0.0,0.0,-0.4120935669027186,0.15590180580619467,9.790090577674128,0.0,0.0,0.0,0.0,0.0,0.0,0.0,0.0,0.0
1702031407926857253,162,1702031407926500082,base_link,0.018095498375611446,0.015005961833352077,-0.6537927472443121,0.7563084144042888,0.0,0.0,0.0,0.0,0.0,0.0,0.0,0.0,0.0,-0.0002293689176440239,0.0020493753254413605,-0.0011537279933691025,0.0,0.0,0.0,0.0,0.0,0.0,0.0,0.0,0.0,-0.4140510734896936,0.06636827433980656,9.791024306001043,0.0,0.0,0.0,0.0,0.0,0.0,0.0,0.0,0.0
1702031407929994211,163,1702031407929666519,base_link,0.01809468262719654,0.015003039215251675,-0.6537954172740159,0.7563061837816889,0.0,0.0,0.0,0.0,0.0,0.0,0.0,0.0,0.0,-0.0002293689176440239,0.0020493753254413605,-0.0011537279933691025,0.0,0.0,0.0,0.0,0.0,0.0,0.0,0.0,0.0,-0.4140510734896936,0.06636827433980656,9.791024306001043,0.0,0.0,0.0,0.0,0.0,0.0,0.0,0.0,0.0
1702031407933619749,164,1702031407933252096,base_link,0.01809468262719654,0.015003039215251675,-0.6537954172740159,0.7563061837816889,0.0,0.0,0.0,0.0,0.0,0.0,0.0,0.0,0.0,-0.002359122969210148,0.0009840652346611023,-0.001153595745563507,0.0,0.0,0.0,0.0,0.0,0.0,0.0,0.0,0.0,-0.42455553631064474,0.08006575153236152,9.790472004557264,0.0,0.0,0.0,0.0,0.0,0.0,0.0,0.0,0.0
1702031407936839984,165,1702031407936421155,base_link,0.018096206037692006,0.01499993970992967,-0.6537980481830962,0.7563039344917584,0.0,0.0,0.0,0.0,0.0,0.0,0.0,0.0,0.0,-0.002359122969210148,0.0009840652346611023,-0.001153595745563507,0.0,0.0,0.0,0.0,0.0,0.0,0.0,0.0,0.0,-0.42455553631064474,0.08006575153236152,9.790472004557264,0.0,0.0,0.0,0.0,0.0,0.0,0.0,0.0,0.0
1702031407943890074,166,1702031407943182945,base_link,0.018096206037692006,0.01499993970992967,-0.6537980481830962,0.7563039344917584,0.0,0.0,0.0,0.0,0.0,0.0,0.0,0.0,0.0,0.0008374918252229691,-0.0011465288698673248,-8.822232484817505e-05,0.0,0.0,0.0,0.0,0.0,0.0,0.0,0.0,0.0,-0.4826382675640222,0.11023114179964705,9.787487389420248,0.0,0.0,0.0,0.0,0.0,0.0,0.0,0.0,0.0
1702031407943918533,167,1702031407943489074,base_link,0.01809383063433785,0.014997640099981478,-0.6537993925501516,0.756302874770062,0.0,0.0,0.0,0.0,0.0,0.0,0.0,0.0,0.0,0.0008374918252229691,-0.0011465288698673248,-8.822232484817505e-05,0.0,0.0,0.0,0.0,0.0,0.0,0.0,0.0,0.0,-0.4826382675640222,0.11023114179964705,9.787487389420248,0.0,0.0,0.0,0.0,0.0,0.0,0.0,0.0,0.0
1702031407950318162,168,1702031407949769020,base_link,0.01809383063433785,0.014997640099981478,-0.6537993925501516,0.756302874770062,0.0,0.0,0.0,0.0,0.0,0.0,0.0,0.0,0.0,-0.0012922771275043488,-0.0011465325951576233,-0.001153353601694107,0.0,0.0,0.0,0.0,0.0,0.0,0.0,0.0,0.0,-0.46970853162933135,0.15445212143306905,9.787518502536763,0.0,0.0,0.0,0.0,0.0,0.0,0.0,0.0,0.0
1702031407950346879,169,1702031407950041770,base_link,0.018095815744519655,0.014996393792819616,-0.6537978628056496,0.756304174401091,0.0,0.0,0.0,0.0,0.0,0.0,0.0,0.0,0.0,-0.0012922771275043488,-0.0011465325951576233,-0.001153353601694107,0.0,0.0,0.0,0.0,0.0,0.0,0.0,0.0,0.0,-0.46970853162933135,0.15445212143306905,9.787518502536763,0.0,0.0,0.0,0.0,0.0,0.0,0.0,0.0,0.0
1702031407957200917,170,1702031407956583499,base_link,0.018095815744519655,0.014996393792819616,-0.6537978628056496,0.756304174401091,0.0,0.0,0.0,0.0,0.0,0.0,0.0,0.0,0.0,-0.0012914575636386871,-0.002211896702647209,0.00097731314599514,0.0,0.0,0.0,0.0,0.0,0.0,0.0,0.0,0.0,-0.44746999858693665,0.11699656624294151,9.789079752655608,0.0,0.0,0.0,0.0,0.0,0.0,0.0,0.0,0.0
1702031407957221354,171,1702031407956882953,base_link,0.018095792164708434,0.014990576286786409,-0.6537964637150218,0.7563054997567146,0.0,0.0,0.0,0.0,0.0,0.0,0.0,0.0,0.0,-0.0012914575636386871,-0.002211896702647209,0.00097731314599514,0.0,0.0,0.0,0.0,0.0,0.0,0.0,0.0,0.0,-0.44746999858693665,0.11699656624294151,9.789079752655608,0.0,0.0,0.0,0.0,0.0,0.0,0.0,0.0,0.0
1702031407963657658,172,1702031407963109970,base_link,0.018095792164708434,0.014990576286786409,-0.6537964637150218,0.7563054997567146,0.0,0.0,0.0,0.0,0.0,0.0,0.0,0.0,0.0,-0.0034211911261081696,-0.0011467169970273972,0.000977449119091034,0.0,0.0,0.0,0.0,0.0,0.0,0.0,0.0,0.0,-0.4215139857270368,0.11976397842954241,9.790198289580617,0.0,0.0,0.0,0.0,0.0,0.0,0.0,0.0,0.0
1702031407963667457,173,1702031407963382005,base_link,0.018088665592974503,0.014983927106882601,-0.6537965664055008,0.7563057132283866,0.0,0.0,0.0,0.0,0.0,0.0,0.0,0.0,0.0,-0.0034211911261081696,-0.0011467169970273972,0.000977449119091034,0.0,0.0,0.0,0.0,0.0,0.0,0.0,0.0,0.0,-0.4215139857270368,0.11976397842954241,9.790198289580617,0.0,0.0,0.0,0.0,0.0,0.0,0.0,0.0,0.0
1702031407970387435,174,1702031407969797372,base_link,0.018088665592974503,0.014983927106882601,-0.6537965664055008,0.7563057132283866,0.0,0.0,0.0,0.0,0.0,0.0,0.0,0.0,0.0,-0.0012898584827780724,0.002049011178314686,-8.769333362579346e-05,0.0,0.0,0.0,0.0,0.0,0.0,0.0,0.0,0.0,-0.40802138894373924,0.09381769580673803,9.791052894664492,0.0,0.0,0.0,0.0,0.0,0.0,0.0,0.0,0.0
1702031407970417098,175,1702031407970062255,base_link,0.018088056826405012,0.01498532867630302,-0.65379517882764,0.7563068995232306,0.0,0.0,0.0,0.0,0.0,0.0,0.0,0.0,0.0,-0.0012898584827780724,0.002049011178314686,-8.769333362579346e-05,0.0,0.0,0.0,0.0,0.0,0.0,0.0,0.0,0.0,-0.40802138894373924,0.09381769580673803,9.791052894664492,0.0,0.0,0.0,0.0,0.0,0.0,0.0,0.0,0.0
1702031407977081944,176,1702031407976469039,base_link,0.018088056826405012,0.01498532867630302,-0.65379517882764,0.7563068995232306,0.0,0.0,0.0,0.0,0.0,0.0,0.0,0.0,0.0,-0.0023543396964669228,0.0020489394664764404,-0.003283357247710228,0.0,0.0,0.0,0.0,0.0,0.0,0.0,0.0,0.0,-0.43341361589221244,0.11230844282608643,9.789767078497281,0.0,0.0,0.0,0.0,0.0,0.0,0.0,0.0,0.0
1702031407977099136,177,1702031407976764440,base_link,0.01808705244354493,0.014989664868612428,-0.6537990184547284,0.7563035184029391,0.0,0.0,0.0,0.0,0.0,0.0,0.0,0.0,0.0,-0.0023543396964669228,0.0020489394664764404,-0.003283357247710228,0.0,0.0,0.0,0.0,0.0,0.0,0.0,0.0,0.0,-0.43341361589221244,0.11230844282608643,9.789767078497281,0.0,0.0,0.0,0.0,0.0,0.0,0.0,0.0,0.0
1702031407983675105,178,1702031407983081817,base_link,0.01808705244354493,0.014989664868612428,-0.6537990184547284,0.7563035184029391,0.0,0.0,0.0,0.0,0.0,0.0,0.0,0.0,0.0,-0.0002230340614914894,-0.002212144434452057,-0.001152699813246727,0.0,0.0,0.0,0.0,0.0,0.0,0.0,0.0,0.0,-0.492852069979485,0.13009360877911766,9.786734516174013,0.0,0.0,0.0,0.0,0.0,0.0,0.0,0.0,0.0
1702031407983717473,179,1702031407983327627,base_link,0.01809351042763381,0.014991097762383578,-0.6537975533346878,0.756304602076346,0.0,0.0,0.0,0.0,0.0,0.0,0.0,0.0,0.0,-0.0002230340614914894,-0.002212144434452057,-0.001152699813246727,0.0,0.0,0.0,0.0,0.0,0.0,0.0,0.0,0.0,-0.492852069979485,0.13009360877911766,9.786734516174013,0.0,0.0,0.0,0.0,0.0,0.0,0.0,0.0,0.0
1702031407990297190,180,1702031407989768266,base_link,0.01809351042763381,0.014991097762383578,-0.6537975533346878,0.756304602076346,0.0,0.0,0.0,0.0,0.0,0.0,0.0,0.0,0.0,0.0019083395600318909,-0.0011470066383481026,0.000977950170636177,0.0,0.0,0.0,0.0,0.0,0.0,0.0,0.0,0.0,-0.4672512464970712,0.0845100605919543,9.788489889779001,0.0,0.0,0.0,0.0,0.0,0.0,0.0,0.0,0.0
1702031407990314382,181,1702031407990023612,base_link,0.018097712255623132,0.014992112060567556,-0.6537975481202167,0.7563044859440338,0.0,0.0,0.0,0.0,0.0,0.0,0.0,0.0,0.0,0.0019083395600318909,-0.0011470066383481026,0.000977950170636177,0.0,0.0,0.0,0.0,0.0,0.0,0.0,0.0,0.0,-0.4672512464970712,0.0845100605919543,9.788489889779001,0.0,0.0,0.0,0.0,0.0,0.0,0.0,0.0,0.0
1702031407996953318,182,1702031407996419668,base_link,0.018097712255623132,0.014992112060567556,-0.6537975481202167,0.7563044859440338,0.0,0.0,0.0,0.0,0.0,0.0,0.0,0.0,0.0,-0.0012866761535406113,-0.0011470811441540718,0.0009780880063772202,0.0,0.0,0.0,0.0,0.0,0.0,0.0,0.0,0.0,-0.404529328781368,0.029144576973707637,9.791603883725521,0.0,0.0,0.0,0.0,0.0,0.0,0.0,0.0,0.0
1702031407996968203,183,1702031407996676206,base_link,0.018090657507352455,0.01499232805580997,-0.6537961111471638,0.7563058926514219,0.0,0.0,0.0,0.0,0.0,0.0,0.0,0.0,0.0,-0.0012866761535406113,-0.0011470811441540718,0.0009780880063772202,0.0,0.0,0.0,0.0,0.0,0.0,0.0,0.0,0.0,-0.404529328781368,0.029144576973707637,9.791603883725521,0.0,0.0,0.0,0.0,0.0,0.0,0.0,0.0,0.0
1702031408003926535,184,1702031408003247022,base_link,0.018090657507352455,0.01499232805580997,-0.6537961111471638,0.7563058926514219,0.0,0.0,0.0,0.0,0.0,0.0,0.0,0.0,0.0,-0.0012859050184488297,-0.00221237912774086,-8.703954517841339e-05,0.0,0.0,0.0,0.0,0.0,0.0,0.0,0.0,0.0,-0.48849425053561074,0.12614677968092175,9.787004667270258,0.0,0.0,0.0,0.0,0.0,0.0,0.0,0.0,0.0
1702031408003948284,185,1702031408003599405,base_link,0.018089901697038398,0.014988055385003892,-0.653796039001934,0.7563060577819994,0.0,0.0,0.0,0.0,0.0,0.0,0.0,0.0,0.0,-0.0012859050184488297,-0.00221237912774086,-8.703954517841339e-05,0.0,0.0,0.0,0.0,0.0,0.0,0.0,0.0,0.0,-0.48849425053561074,0.12614677968092175,9.787004667270258,0.0,0.0,0.0,0.0,0.0,0.0,0.0,0.0,0.0
1702031408010396095,186,1702031408009818315,base_link,0.018089901697038398,0.014988055385003892,-0.653796039001934,0.7563060577819994,0.0,0.0,0.0,0.0,0.0,0.0,0.0,0.0,0.0,-0.0023503676056861877,0.0009833211079239845,0.0020436272025108337,0.0,0.0,0.0,0.0,0.0,0.0,0.0,0.0,0.0,-0.4753480421061288,0.07353077652583588,9.788188671238892,0.0,0.0,0.0,0.0,0.0,0.0,0.0,0.0,0.0
1702031408010425553,187,1702031408010141611,base_link,0.01809425523448695,0.014993109393716255,-0.6537931389947205,0.7563083603938591,0.0,0.0,0.0,0.0,0.0,0.0,0.0,0.0,0.0,-0.0023503676056861877,0.0009833211079239845,0.0020436272025108337,0.0,0.0,0.0,0.0,0.0,0.0,0.0,0.0,0.0,-0.4753480421061288,0.07353077652583588,9.788188671238892,0.0,0.0,0.0,0.0,0.0,0.0,0.0,0.0,0.0
1702031408016803329,188,1702031408016436338,base_link,0.01809425523448695,0.014993109393716255,-0.6537931389947205,0.7563083603938591,0.0,0.0,0.0,0.0,0.0,0.0,0.0,0.0,0.0,-0.0023495685309171677,0.002048458904027939,-8.67694616317749e-05,0.0,0.0,0.0,0.0,0.0,0.0,0.0,0.0,0.0,-0.440190648091892,0.10305265745632201,9.789566504351644,0.0,0.0,0.0,0.0,0.0,0.0,0.0,0.0,0.0
1702031408020041562,189,1702031408019698858,base_link,0.018096568746938727,0.014995517596704437,-0.6537942080989299,0.7563073331046629,0.0,0.0,0.0,0.0,0.0,0.0,0.0,0.0,0.0,-0.0023495685309171677,0.002048458904027939,-8.67694616317749e-05,0.0,0.0,0.0,0.0,0.0,0.0,0.0,0.0,0.0,-0.440190648091892,0.10305265745632201,9.789566504351644,0.0,0.0,0.0,0.0,0.0,0.0,0.0,0.0,0.0
1702031408023494387,190,1702031408023188591,base_link,0.018096568746938727,0.014995517596704437,-0.6537942080989299,0.7563073331046629,0.0,0.0,0.0,0.0,0.0,0.0,0.0,0.0,0.0,-0.0002182498574256897,-8.213520050048828e-05,-8.664466440677643e-05,0.0,0.0,0.0,0.0,0.0,0.0,0.0,0.0,0.0,-0.5224047556551686,0.07865034023693539,9.78575022138055,0.0,0.0,0.0,0.0,0.0,0.0,0.0,0.0,0.0
1702031408026604394,191,1702031408026332378,base_link,0.01809837815438007,0.014994578354387667,-0.653796949770184,0.7563049383676921,0.0,0.0,0.0,0.0,0.0,0.0,0.0,0.0,0.0,-0.0002182498574256897,-8.213520050048828e-05,-8.664466440677643e-05,0.0,0.0,0.0,0.0,0.0,0.0,0.0,0.0,0.0,-0.5224047556551686,0.07865034023693539,9.78575022138055,0.0,0.0,0.0,0.0,0.0,0.0,0.0,0.0,0.0
1702031408030020248,192,1702031408029753446,base_link,0.01809837815438007,0.014994578354387667,-0.653796949770184,0.7563049383676921,0.0,0.0,0.0,0.0,0.0,0.0,0.0,0.0,0.0,-0.0012827375903725624,0.0009830733761191368,-8.651800453662872e-05,0.0,0.0,0.0,0.0,0.0,0.0,0.0,0.0,0.0,-0.5079241673212448,0.12243524880792142,9.78606267352199,0.0,0.0,0.0,0.0,0.0,0.0,0.0,0.0,0.0
1702031408033228839,193,1702031408032979726,base_link,0.01810475258415508,0.014996535864525876,-0.6537980914172106,0.7563037600760314,0.0,0.0,0.0,0.0,0.0,0.0,0.0,0.0,0.0,-0.0012827375903725624,0.0009830733761191368,-8.651800453662872e-05,0.0,0.0,0.0,0.0,0.0,0.0,0.0,0.0,0.0,-0.5079241673212448,0.12243524880792142,9.78606267352199,0.0,0.0,0.0,0.0,0.0,0.0,0.0,0.0,0.0
1702031408036794843,194,1702031408036416530,base_link,0.01810475258415508,0.014996535864525876,-0.6537980914172106,0.7563037600760314,0.0,0.0,0.0,0.0,0.0,0.0,0.0,0.0,0.0,-0.00021665077656507492,-0.0022128038108348846,0.004174666479229927,0.0,0.0,0.0,0.0,0.0,0.0,0.0,0.0,0.0,-0.44147640942076194,0.10389545795795815,9.789499696804771,0.0,0.0,0.0,0.0,0.0,0.0,0.0,0.0,0.0
1702031408040075807,195,1702031408039661169,base_link,0.018107366668630467,0.01499533072335901,-0.6537926374257258,0.756308436140136,0.0,0.0,0.0,0.0,0.0,0.0,0.0,0.0,0.0,-0.00021665077656507492,-0.0022128038108348846,0.004174666479229927,0.0,0.0,0.0,0.0,0.0,0.0,0.0,0.0,0.0,-0.44147640942076194,0.10389545795795815,9.789499696804771,0.0,0.0,0.0,0.0,0.0,0.0,0.0,0.0,0.0
1702031408043405360,196,1702031408043125152,base_link,0.018107366668630467,0.01499533072335901,-0.6537926374257258,0.756308436140136,0.0,0.0,0.0,0.0,0.0,0.0,0.0,0.0,0.0,-0.0023463862016797066,0.0031133778393268585,-8.625537157058716e-05,0.0,0.0,0.0,0.0,0.0,0.0,0.0,0.0,0.0,-0.48275965803265675,0.1741883122294147,9.78655207641889,0.0,0.0,0.0,0.0,0.0,0.0,0.0,0.0,0.0
1702031408046571217,197,1702031408046317815,base_link,0.0181081768640614,0.015000894008280466,-0.6537936916835323,0.756307395061314,0.0,0.0,0.0,0.0,0.0,0.0,0.0,0.0,0.0,-0.0023463862016797066,0.0031133778393268585,-8.625537157058716e-05,0.0,0.0,0.0,0.0,0.0,0.0,0.0,0.0,0.0,-0.48275965803265675,0.1741883122294147,9.78655207641889,0.0,0.0,0.0,0.0,0.0,0.0,0.0,0.0,0.0
1702031408050015544,198,1702031408049748659,base_link,0.0181081768640614,0.015000894008280466,-0.6537936916835323,0.756307395061314,0.0,0.0,0.0,0.0,0.0,0.0,0.0,0.0,0.0,0.0008501764386892319,-0.003278217278420925,-8.613057434558868e-05,0.0,0.0,0.0,0.0,0.0,0.0,0.0,0.0,0.0,-0.46037668586833164,0.10755583936815401,9.788589533151685,0.0,0.0,0.0,0.0,0.0,0.0,0.0,0.0,0.0
1702031408053309889,199,1702031408052994489,base_link,0.018107380392110826,0.014990939003675,-0.6537951368625476,0.756306362222351,0.0,0.0,0.0,0.0,0.0,0.0,0.0,0.0,0.0,0.0008501764386892319,-0.003278217278420925,-8.613057434558868e-05,0.0,0.0,0.0,0.0,0.0,0.0,0.0,0.0,0.0,-0.46037668586833164,0.10755583936815401,9.788589533151685,0.0,0.0,0.0,0.0,0.0,0.0,0.0,0.0,0.0
1702031408056752329,200,1702031408056442022,base_link,0.018107380392110826,0.014990939003675,-0.6537951368625476,0.756306362222351,0.0,0.0,0.0,0.0,0.0,0.0,0.0,0.0,0.0,0.0008509587496519089,-0.002212975174188614,-8.601322770118713e-05,0.0,0.0,0.0,0.0,0.0,0.0,0.0,0.0,0.0,-0.40106225563476505,0.07073802450457359,9.791534363877519,0.0,0.0,0.0,0.0,0.0,0.0,0.0,0.0,0.0
1702031408060004062,201,1702031408059665441,base_link,0.018109001967614533,0.0149858360554245,-0.6537924714368395,0.756308728667048,0.0,0.0,0.0,0.0,0.0,0.0,0.0,0.0,0.0,0.0008509587496519089,-0.002212975174188614,-8.601322770118713e-05,0.0,0.0,0.0,0.0,0.0,0.0,0.0,0.0,0.0,-0.40106225563476505,0.07073802450457359,9.791534363877519,0.0,0.0,0.0,0.0,0.0,0.0,0.0,0.0,0.0
1702031408063396788,202,1702031408063094377,base_link,0.018109001967614533,0.0149858360554245,-0.6537924714368395,0.756308728667048,0.0,0.0,0.0,0.0,0.0,0.0,0.0,0.0,0.0,-0.00021349173039197922,-0.0022130589932203293,0.000979376956820488,0.0,0.0,0.0,0.0,0.0,0.0,0.0,0.0,0.0,-0.41937805781309595,0.09840295818214097,9.790528019593525,0.0,0.0,0.0,0.0,0.0,0.0,0.0,0.0,0.0
1702031408066649577,203,1702031408066317081,base_link,0.018106176140330568,0.014979556500127184,-0.6537911219538762,0.7563100872835998,0.0,0.0,0.0,0.0,0.0,0.0,0.0,0.0,0.0,-0.00021349173039197922,-0.0022130589932203293,0.000979376956820488,0.0,0.0,0.0,0.0,0.0,0.0,0.0,0.0,0.0,-0.41937805781309595,0.09840295818214097,9.790528019593525,0.0,0.0,0.0,0.0,0.0,0.0,0.0,0.0,0.0
1702031408070057876,204,1702031408069756746,base_link,0.018106176140330568,0.014979556500127184,-0.6537911219538762,0.7563100872835998,0.0,0.0,0.0,0.0,0.0,0.0,0.0,0.0,0.0,-0.0023432644084095955,-0.0032783513888716698,-0.0022162888199090958,0.0,0.0,0.0,0.0,0.0,0.0,0.0,0.0,0.0,-0.4554087374008679,0.10569495987127034,9.788842191871147,0.0,0.0,0.0,0.0,0.0,0.0,0.0,0.0,0.0
1702031408073328243,205,1702031408072997093,base_link,0.01810164317472209,0.014974142688660189,-0.6537965445026518,0.7563056154502005,0.0,0.0,0.0,0.0,0.0,0.0,0.0,0.0,0.0,-0.0023432644084095955,-0.0032783513888716698,-0.0022162888199090958,0.0,0.0,0.0,0.0,0.0,0.0,0.0,0.0,0.0,-0.4554087374008679,0.10569495987127034,9.788842191871147,0.0,0.0,0.0,0.0,0.0,0.0,0.0,0.0,0.0
1702031408076674239,206,1702031408076421260,base_link,0.01810164317472209,0.014974142688660189,-0.6537965445026518,0.7563056154502005,0.0,0.0,0.0,0.0,0.0,0.0,0.0,0.0,0.0,-0.0023424988612532616,0.002047888934612274,-8.563138544559479e-05,0.0,0.0,0.0,0.0,0.0,0.0,0.0,0.0,0.0,-0.46300391073002956,0.06381655254346387,9.78884849337603,0.0,0.0,0.0,0.0,0.0,0.0,0.0,0.0,0.0
1702031408079885373,207,1702031408079640626,base_link,0.018107424724980822,0.014982691789203459,-0.6537963509125888,0.7563054750892406,0.0,0.0,0.0,0.0,0.0,0.0,0.0,0.0,0.0,-0.0023424988612532616,0.002047888934612274,-8.563138544559479e-05,0.0,0.0,0.0,0.0,0.0,0.0,0.0,0.0,0.0,-0.46300391073002956,0.06381655254346387,9.78884849337603,0.0,0.0,0.0,0.0,0.0,0.0,0.0,0.0,0.0
1702031408083357350,208,1702031408083091974,base_link,0.018107424724980822,0.014982691789203459,-0.6537963509125888,0.7563054750892406,0.0,0.0,0.0,0.0,0.0,0.0,0.0,0.0,0.0,-0.0002111624926328659,0.0009825127199292183,-8.5512176156044e-05,0.0,0.0,0.0,0.0,0.0,0.0,0.0,0.0,0.0,-0.46434308720376294,0.10459519945230521,9.788434264049467,0.0,0.0,0.0,0.0,0.0,0.0,0.0,0.0,0.0
1702031408086543127,209,1702031408086308956,base_link,0.01810978506360053,0.014982212048548155,-0.653797726816329,0.7563042386611908,0.0,0.0,0.0,0.0,0.0,0.0,0.0,0.0,0.0,-0.0002111624926328659,0.0009825127199292183,-8.5512176156044e-05,0.0,0.0,0.0,0.0,0.0,0.0,0.0,0.0,0.0,-0.46434308720376294,0.10459519945230521,9.788434264049467,0.0,0.0,0.0,0.0,0.0,0.0,0.0,0.0,0.0
1702031408090038730,210,1702031408089747905,base_link,0.01810978506360053,0.014982212048548155,-0.653797726816329,0.7563042386611908,0.0,0.0,0.0,0.0,0.0,0.0,0.0,0.0,0.0,-0.001275678165256977,-0.0011480124667286873,-0.0032811835408210754,0.0,0.0,0.0,0.0,0.0,0.0,0.0,0.0,0.0,-0.44644801799751066,0.09138959355845919,9.789398965688104,0.0,0.0,0.0,0.0,0.0,0.0,0.0,0.0,0.0
1702031408093277006,211,1702031408093000411,base_link,0.018109529410852927,0.014978265524066926,-0.6537989082672123,0.756303301629055,0.0,0.0,0.0,0.0,0.0,0.0,0.0,0.0,0.0,-0.001275678165256977,-0.0011480124667286873,-0.0032811835408210754,0.0,0.0,0.0,0.0,0.0,0.0,0.0,0.0,0.0,-0.44644801799751066,0.09138959355845919,9.789398965688104,0.0,0.0,0.0,0.0,0.0,0.0,0.0,0.0,0.0
1702031408096740693,212,1702031408096416234,base_link,0.018109529410852927,0.014978265524066926,-0.6537989082672123,0.756303301629055,0.0,0.0,0.0,0.0,0.0,0.0,0.0,0.0,0.0,-0.00234014168381691,0.0031129084527492523,0.0009800121188163757,0.0,0.0,0.0,0.0,0.0,0.0,0.0,0.0,0.0,-0.4820969947924812,0.07084301716159684,9.787878409263753,0.0,0.0,0.0,0.0,0.0,0.0,0.0,0.0,0.0
1702031408099919363,213,1702031408099642992,base_link,0.01810871916141554,0.014981225348270406,-0.6537989498806849,0.7563032264325671,0.0,0.0,0.0,0.0,0.0,0.0,0.0,0.0,0.0,-0.00234014168381691,0.0031129084527492523,0.0009800121188163757,0.0,0.0,0.0,0.0,0.0,0.0,0.0,0.0,0.0,-0.4820969947924812,0.07084301716159684,9.787878409263753,0.0,0.0,0.0,0.0,0.0,0.0,0.0,0.0,0.0
1702031408103404628,214,1702031408103096723,base_link,0.01810871916141554,0.014981225348270406,-0.6537989498806849,0.7563032264325671,0.0,0.0,0.0,0.0,0.0,0.0,0.0,0.0,0.0,-0.0023393845185637474,-0.0011481530964374542,-0.0022156648337841034,0.0,0.0,0.0,0.0,0.0,0.0,0.0,0.0,0.0,-0.44013405953742135,0.11749148625625047,9.789406404899758,0.0,0.0,0.0,0.0,0.0,0.0,0.0,0.0,0.0
1702031408106559453,215,1702031408106330633,base_link,0.01811067028560938,0.014976881631835536,-0.6537987874431983,0.7563034061646131,0.0,0.0,0.0,0.0,0.0,0.0,0.0,0.0,0.0,-0.0023393845185637474,-0.0011481530964374542,-0.0022156648337841034,0.0,0.0,0.0,0.0,0.0,0.0,0.0,0.0,0.0,-0.44013405953742135,0.11749148625625047,9.789406404899758,0.0,0.0,0.0,0.0,0.0,0.0,0.0,0.0,0.0
1702031408109968368,216,1702031408109742164,base_link,0.01811067028560938,0.014976881631835536,-0.6537987874431983,0.7563034061646131,0.0,0.0,0.0,0.0,0.0,0.0,0.0,0.0,0.0,-0.0012733163312077522,0.0009822696447372437,-0.0011502765119075775,0.0,0.0,0.0,0.0,0.0,0.0,0.0,0.0,0.0,-0.4438429566118286,0.11204315387097667,9.789302823058275,0.0,0.0,0.0,0.0,0.0,0.0,0.0,0.0,0.0
1702031408113249011,217,1702031408112993955,base_link,0.018107488613232237,0.014976021658715997,-0.6537960250983819,0.7563058873213638,0.0,0.0,0.0,0.0,0.0,0.0,0.0,0.0,0.0,-0.0012733163312077522,0.0009822696447372437,-0.0011502765119075775,0.0,0.0,0.0,0.0,0.0,0.0,0.0,0.0,0.0,-0.4438429566118286,0.11204315387097667,9.789302823058275,0.0,0.0,0.0,0.0,0.0,0.0,0.0,0.0,0.0
1702031408116734560,218,1702031408116409778,base_link,0.018107488613232237,0.014976021658715997,-0.6537960250983819,0.7563058873213638,0.0,0.0,0.0,0.0,0.0,0.0,0.0,0.0,0.0,-0.0012725330889225006,-0.0032788217067718506,-0.0011501461267471313,0.0,0.0,0.0,0.0,0.0,0.0,0.0,0.0,0.0,-0.4601614708914479,0.11211238345659806,9.788548525403687,0.0,0.0,0.0,0.0,0.0,0.0,0.0,0.0,0.0
1702031408119936066,219,1702031408119644403,base_link,0.01810869544884907,0.014974859821966379,-0.6537985173104042,0.7563037270073251,0.0,0.0,0.0,0.0,0.0,0.0,0.0,0.0,0.0,-0.0012725330889225006,-0.0032788217067718506,-0.0011501461267471313,0.0,0.0,0.0,0.0,0.0,0.0,0.0,0.0,0.0,-0.4601614708914479,0.11211238345659806,9.788548525403687,0.0,0.0,0.0,0.0,0.0,0.0,0.0,0.0,0.0
1702031408123338292,220,1702031408123092651,base_link,0.01810869544884907,0.014974859821966379,-0.6537985173104042,0.7563037270073251,0.0,0.0,0.0,0.0,0.0,0.0,0.0,0.0,0.0,0.0019240481778979301,-8.31354409456253e-05,-0.0011500325053930283,0.0,0.0,0.0,0.0,0.0,0.0,0.0,0.0,0.0,-0.43221273797824966,0.11199726494981282,9.789823734969547,0.0,0.0,0.0,0.0,0.0,0.0,0.0,0.0,0.0
1702031408126520595,221,1702031408126306056,base_link,0.0181125641457083,0.01497087172876572,-0.6537998643350705,0.7563025488620225,0.0,0.0,0.0,0.0,0.0,0.0,0.0,0.0,0.0,0.0019240481778979301,-8.31354409456253e-05,-0.0011500325053930283,0.0,0.0,0.0,0.0,0.0,0.0,0.0,0.0,0.0,-0.43221273797824966,0.11199726494981282,9.789823734969547,0.0,0.0,0.0,0.0,0.0,0.0,0.0,0.0,0.0
1702031408130065352,222,1702031408129742145,base_link,0.0181125641457083,0.01497087172876572,-0.6537998643350705,0.7563025488620225,0.0,0.0,0.0,0.0,0.0,0.0,0.0,0.0,0.0,-0.0002056993544101715,-8.321460336446762e-05,0.0009806249290704727,0.0,0.0,0.0,0.0,0.0,0.0,0.0,0.0,0.0,-0.44487830611273244,0.09615298722061,9.789424799026694,0.0,0.0,0.0,0.0,0.0,0.0,0.0,0.0,0.0
1702031408133268676,223,1702031408132971286,base_link,0.018119553782552342,0.014965163128742093,-0.6537998453398439,0.7563025108360063,0.0,0.0,0.0,0.0,0.0,0.0,0.0,0.0,0.0,-0.0002056993544101715,-8.321460336446762e-05,0.0009806249290704727,0.0,0.0,0.0,0.0,0.0,0.0,0.0,0.0,0.0,-0.44487830611273244,0.09615298722061,9.789424799026694,0.0,0.0,0.0,0.0,0.0,0.0,0.0,0.0,0.0
1702031408136643047,224,1702031408136409282,base_link,0.018119553782552342,0.014965163128742093,-0.6537998453398439,0.7563025108360063,0.0,0.0,0.0,0.0,0.0,0.0,0.0,0.0,0.0,-0.0034007150679826736,-8.330401033163071e-05,-8.45193862915039e-05,0.0,0.0,0.0,0.0,0.0,0.0,0.0,0.0,0.0,-0.4864922956115804,0.07737451545990032,9.787611477304763,0.0,0.0,0.0,0.0,0.0,0.0,0.0,0.0,0.0
1702031408139863894,225,1702031408139638185,base_link,0.01812014297794525,0.014970412994825308,-0.6537970801459133,0.7563047832361641,0.0,0.0,0.0,0.0,0.0,0.0,0.0,0.0,0.0,-0.0034007150679826736,-8.330401033163071e-05,-8.45193862915039e-05,0.0,0.0,0.0,0.0,0.0,0.0,0.0,0.0,0.0,-0.4864922956115804,0.07737451545990032,9.787611477304763,0.0,0.0,0.0,0.0,0.0,0.0,0.0,0.0,0.0
1702031408143344977,226,1702031408143091440,base_link,0.01812014297794525,0.014970412994825308,-0.6537970801459133,0.7563047832361641,0.0,0.0,0.0,0.0,0.0,0.0,0.0,0.0,0.0,-0.003399943932890892,-0.0011486345902085304,-0.001149650663137436,0.0,0.0,0.0,0.0,0.0,0.0,0.0,0.0,0.0,-0.4677631658964317,0.11052196498766703,9.78820629716629,0.0,0.0,0.0,0.0,0.0,0.0,0.0,0.0,0.0
1702031408146648920,227,1702031408146322250,base_link,0.018119241138411905,0.014968075725052137,-0.6537969705735796,0.7563049458244122,0.0,0.0,0.0,0.0,0.0,0.0,0.0,0.0,0.0,-0.003399943932890892,-0.0011486345902085304,-0.001149650663137436,0.0,0.0,0.0,0.0,0.0,0.0,0.0,0.0,0.0,-0.4677631658964317,0.11052196498766703,9.78820629716629,0.0,0.0,0.0,0.0,0.0,0.0,0.0,0.0,0.0
1702031408149973038,228,1702031408149745941,base_link,0.018119241138411905,0.014968075725052137,-0.6537969705735796,0.7563049458244122,0.0,0.0,0.0,0.0,0.0,0.0,0.0,0.0,0.0,-0.0033991774544119835,-0.0011486653238534927,-0.0011495258659124374,0.0,0.0,0.0,0.0,0.0,0.0,0.0,0.0,0.0,-0.44881641603101996,0.11795422531147289,9.789006620971929,0.0,0.0,0.0,0.0,0.0,0.0,0.0,0.0,0.0
1702031408153308427,229,1702031408152976989,base_link,0.018119606274735814,0.014972805771618908,-0.6537940131727212,0.7563074000003449,0.0,0.0,0.0,0.0,0.0,0.0,0.0,0.0,0.0,-0.0033991774544119835,-0.0011486653238534927,-0.0011495258659124374,0.0,0.0,0.0,0.0,0.0,0.0,0.0,0.0,0.0,-0.44881641603101996,0.11795422531147289,9.789006620971929,0.0,0.0,0.0,0.0,0.0,0.0,0.0,0.0,0.0
1702031408156628875,230,1702031408156407833,base_link,0.018119606274735814,0.014972805771618908,-0.6537940131727212,0.7563074000003449,0.0,0.0,0.0,0.0,0.0,0.0,0.0,0.0,0.0,-0.0012678653001785278,0.0020469827577471733,-0.00221465528011322,0.0,0.0,0.0,0.0,0.0,0.0,0.0,0.0,0.0,-0.44320372754053866,0.09397738215601739,9.789521883500607,0.0,0.0,0.0,0.0,0.0,0.0,0.0,0.0,0.0
1702031408159851643,231,1702031408159637212,base_link,0.018121105281984844,0.014970956622583173,-0.6537937514017325,0.7563076269807238,0.0,0.0,0.0,0.0,0.0,0.0,0.0,0.0,0.0,-0.0012678653001785278,0.0020469827577471733,-0.00221465528011322,0.0,0.0,0.0,0.0,0.0,0.0,0.0,0.0,0.0,-0.44320372754053866,0.09397738215601739,9.789521883500607,0.0,0.0,0.0,0.0,0.0,0.0,0.0,0.0,0.0
1702031408163301495,232,1702031408163077116,base_link,0.018121105281984844,0.014970956622583173,-0.6537937514017325,0.7563076269807238,0.0,0.0,0.0,0.0,0.0,0.0,0.0,0.0,0.0,-0.002332376316189766,0.0020469166338443756,-0.0043450575321912766,0.0,0.0,0.0,0.0,0.0,0.0,0.0,0.0,0.0,-0.5357165772836074,0.10518601406212674,9.784781226541005,0.0,0.0,0.0,0.0,0.0,0.0,0.0,0.0,0.0
1702031408166599584,233,1702031408166306972,base_link,0.018128357574179042,0.014983516305207788,-0.6537986702589009,0.7563029523005229,0.0,0.0,0.0,0.0,0.0,0.0,0.0,0.0,0.0,-0.002332376316189766,0.0020469166338443756,-0.0043450575321912766,0.0,0.0,0.0,0.0,0.0,0.0,0.0,0.0,0.0,-0.5357165772836074,0.10518601406212674,9.784781226541005,0.0,0.0,0.0,0.0,0.0,0.0,0.0,0.0,0.0
1702031408169966677,234,1702031408169741630,base_link,0.018128357574179042,0.014983516305207788,-0.6537986702589009,0.7563029523005229,0.0,0.0,0.0,0.0,0.0,0.0,0.0,0.0,0.0,-0.0023315995931625366,-8.375849574804306e-05,0.0009814035147428513,0.0,0.0,0.0,0.0,0.0,0.0,0.0,0.0,0.0,-0.42755089677064384,0.0958714295802688,9.790199635332309,0.0,0.0,0.0,0.0,0.0,0.0,0.0,0.0,0.0
1702031408173185733,235,1702031408172977447,base_link,0.018129612114462474,0.014975886573088178,-0.6538014366718422,0.7563006818665208,0.0,0.0,0.0,0.0,0.0,0.0,0.0,0.0,0.0,-0.0023315995931625366,-8.375849574804306e-05,0.0009814035147428513,0.0,0.0,0.0,0.0,0.0,0.0,0.0,0.0,0.0,-0.42755089677064384,0.0958714295802688,9.790199635332309,0.0,0.0,0.0,0.0,0.0,0.0,0.0,0.0,0.0
1702031408176730801,236,1702031408176414251,base_link,0.018129612114462474,0.014975886573088178,-0.6538014366718422,0.7563006818665208,0.0,0.0,0.0,0.0,0.0,0.0,0.0,0.0,0.0,-0.003396071493625641,0.00204667542129755,0.0031120460480451584,0.0,0.0,0.0,0.0,0.0,0.0,0.0,0.0,0.0,-0.43686958675608656,0.13733316011449276,9.789294385567356,0.0,0.0,0.0,0.0,0.0,0.0,0.0,0.0,0.0
1702031408179872669,237,1702031408179636955,base_link,0.018133082040503946,0.014977637400316051,-0.6537999051957999,0.7563018879254367,0.0,0.0,0.0,0.0,0.0,0.0,0.0,0.0,0.0,-0.003396071493625641,0.00204667542129755,0.0031120460480451584,0.0,0.0,0.0,0.0,0.0,0.0,0.0,0.0,0.0,-0.43686958675608656,0.13733316011449276,9.789294385567356,0.0,0.0,0.0,0.0,0.0,0.0,0.0,0.0,0.0
1702031408183362172,238,1702031408183110475,base_link,0.018133082040503946,0.014977637400316051,-0.6537999051957999,0.7563018879254367,0.0,0.0,0.0,0.0,0.0,0.0,0.0,0.0,0.0,-0.004460585303604603,-0.0011491850018501282,-8.361972868442535e-05,0.0,0.0,0.0,0.0,0.0,0.0,0.0,0.0,0.0,-0.4325168164071635,0.10286538810333791,9.789910516212874,0.0,0.0,0.0,0.0,0.0,0.0,0.0,0.0,0.0
1702031408186583363,239,1702031408186319112,base_link,0.01812462680802538,0.014977161515515557,-0.6537996845433385,0.7563022907720425,0.0,0.0,0.0,0.0,0.0,0.0,0.0,0.0,0.0,-0.004460585303604603,-0.0011491850018501282,-8.361972868442535e-05,0.0,0.0,0.0,0.0,0.0,0.0,0.0,0.0,0.0,-0.4325168164071635,0.10286538810333791,9.789910516212874,0.0,0.0,0.0,0.0,0.0,0.0,0.0,0.0,0.0
1702031408190021373,240,1702031408189744472,base_link,0.01812462680802538,0.014977161515515557,-0.6537996845433385,0.7563022907720425,0.0,0.0,0.0,0.0,0.0,0.0,0.0,0.0,0.0,-0.0001987731084227562,-8.397363126277924e-05,-0.00221402570605278,0.0,0.0,0.0,0.0,0.0,0.0,0.0,0.0,0.0,-0.4551712306015972,0.10280699491817824,9.788883995258528,0.0,0.0,0.0,0.0,0.0,0.0,0.0,0.0,0.0
1702031408193203619,241,1702031408192975759,base_link,0.018128170849410923,0.014982620534232306,-0.6537992906104149,0.7563024382486809,0.0,0.0,0.0,0.0,0.0,0.0,0.0,0.0,0.0,-0.0001987731084227562,-8.397363126277924e-05,-0.00221402570605278,0.0,0.0,0.0,0.0,0.0,0.0,0.0,0.0,0.0,-0.4551712306015972,0.10280699491817824,9.788883995258528,0.0,0.0,0.0,0.0,0.0,0.0,0.0,0.0,0.0
1702031408196616012,242,1702031408196404457,base_link,0.018128170849410923,0.014982620534232306,-0.6537992906104149,0.7563024382486809,0.0,0.0,0.0,0.0,0.0,0.0,0.0,0.0,0.0,-0.001263270154595375,-8.410681039094925e-05,-0.0011486206203699112,0.0,0.0,0.0,0.0,0.0,0.0,0.0,0.0,0.0,-0.43860819218669533,0.10784169898956365,9.789585947408897,0.0,0.0,0.0,0.0,0.0,0.0,0.0,0.0,0.0
1702031408199948225,243,1702031408199640750,base_link,0.01812768667795299,0.01497911172988722,-0.6538019224533992,0.7563002442044621,0.0,0.0,0.0,0.0,0.0,0.0,0.0,0.0,0.0,-0.001263270154595375,-8.410681039094925e-05,-0.0011486206203699112,0.0,0.0,0.0,0.0,0.0,0.0,0.0,0.0,0.0,-0.43860819218669533,0.10784169898956365,9.789585947408897,0.0,0.0,0.0,0.0,0.0,0.0,0.0,0.0,0.0
1702031408203318950,244,1702031408203091621,base_link,0.01812768667795299,0.01497911172988722,-0.6538019224533992,0.7563002442044621,0.0,0.0,0.0,0.0,0.0,0.0,0.0,0.0,0.0,-0.002327786758542061,-0.0011494113132357597,-0.0011484939604997635,0.0,0.0,0.0,0.0,0.0,0.0,0.0,0.0,0.0,-0.4285267618847944,0.13915643002463968,9.789637393812466,0.0,0.0,0.0,0.0,0.0,0.0,0.0,0.0,0.0
1702031408206591152,245,1702031408206326484,base_link,0.01812976943237659,0.014973189710784374,-0.6538032499521466,0.7562991639571107,0.0,0.0,0.0,0.0,0.0,0.0,0.0,0.0,0.0,-0.002327786758542061,-0.0011494113132357597,-0.0011484939604997635,0.0,0.0,0.0,0.0,0.0,0.0,0.0,0.0,0.0,-0.4285267618847944,0.13915643002463968,9.789637393812466,0.0,0.0,0.0,0.0,0.0,0.0,0.0,0.0,0.0
1702031408210087920,246,1702031408209768772,base_link,0.01812976943237659,0.014973189710784374,-0.6538032499521466,0.7562991639571107,0.0,0.0,0.0,0.0,0.0,0.0,0.0,0.0,0.0,-0.003392282873392105,0.000981055200099945,-0.0011483747512102127,0.0,0.0,0.0,0.0,0.0,0.0,0.0,0.0,0.0,-0.42564686472465396,0.12128784810940973,9.790000715242623,0.0,0.0,0.0,0.0,0.0,0.0,0.0,0.0,0.0
1702031408213291141,247,1702031408213015317,base_link,0.01813331271364529,0.01497446563934404,-0.65380439511261,0.756298063781919,0.0,0.0,0.0,0.0,0.0,0.0,0.0,0.0,0.0,-0.003392282873392105,0.000981055200099945,-0.0011483747512102127,0.0,0.0,0.0,0.0,0.0,0.0,0.0,0.0,0.0,-0.42564686472465396,0.12128784810940973,9.790000715242623,0.0,0.0,0.0,0.0,0.0,0.0,0.0,0.0,0.0
1702031408216690243,248,1702031408216428756,base_link,0.01813331271364529,0.01497446563934404,-0.65380439511261,0.756298063781919,0.0,0.0,0.0,0.0,0.0,0.0,0.0,0.0,0.0,-0.0012609707191586494,-8.429214358329773e-05,-8.299201726913452e-05,0.0,0.0,0.0,0.0,0.0,0.0,0.0,0.0,0.0,-0.4707445219852543,0.061622491541624566,9.788493360244829,0.0,0.0,0.0,0.0,0.0,0.0,0.0,0.0,0.0
1702031408219912253,249,1702031408219657421,base_link,0.018128452310617486,0.014976913865992801,-0.6538042315688971,0.7562982732034209,0.0,0.0,0.0,0.0,0.0,0.0,0.0,0.0,0.0,-0.0012609707191586494,-8.429214358329773e-05,-8.299201726913452e-05,0.0,0.0,0.0,0.0,0.0,0.0,0.0,0.0,0.0,-0.4707445219852543,0.061622491541624566,9.788493360244829,0.0,0.0,0.0,0.0,0.0,0.0,0.0,0.0,0.0
1702031408223454983,250,1702031408223093032,base_link,0.018128452310617486,0.014976913865992801,-0.6538042315688971,0.7562982732034209,0.0,0.0,0.0,0.0,0.0,0.0,0.0,0.0,0.0,-0.004456034861505032,-0.003280102275311947,-8.285045623779297e-05,0.0,0.0,0.0,0.0,0.0,0.0,0.0,0.0,0.0,-0.45093862191030226,0.06904098978287274,9.789376267209237,0.0,0.0,0.0,0.0,0.0,0.0,0.0,0.0,0.0
1702031408226552189,251,1702031408226317167,base_link,0.018120627756901715,0.014979820835968485,-0.6538028918060164,0.7562995613402858,0.0,0.0,0.0,0.0,0.0,0.0,0.0,0.0,0.0,-0.004456034861505032,-0.003280102275311947,-8.285045623779297e-05,0.0,0.0,0.0,0.0,0.0,0.0,0.0,0.0,0.0,-0.45093862191030226,0.06904098978287274,9.789376267209237,0.0,0.0,0.0,0.0,0.0,0.0,0.0,0.0,0.0
1702031408229976586,252,1702031408229744434,base_link,0.018120627756901715,0.014979820835968485,-0.6538028918060164,0.7562995613402858,0.0,0.0,0.0,0.0,0.0,0.0,0.0,0.0,0.0,-0.0023247404024004936,-0.001149635761976242,-0.002213258296251297,0.0,0.0,0.0,0.0,0.0,0.0,0.0,0.0,0.0,-0.4784632619400321,0.09598156322911784,9.787842481696044,0.0,0.0,0.0,0.0,0.0,0.0,0.0,0.0,0.0
1702031408233255611,253,1702031408232988834,base_link,0.018124941081893834,0.014980426610158703,-0.6538055117820658,0.7562971810688882,0.0,0.0,0.0,0.0,0.0,0.0,0.0,0.0,0.0,-0.0023247404024004936,-0.001149635761976242,-0.002213258296251297,0.0,0.0,0.0,0.0,0.0,0.0,0.0,0.0,0.0,-0.4784632619400321,0.09598156322911784,9.787842481696044,0.0,0.0,0.0,0.0,0.0,0.0,0.0,0.0,0.0
1702031408236658091,254,1702031408236417055,base_link,0.018124941081893834,0.014980426610158703,-0.6538055117820658,0.7562971810688882,0.0,0.0,0.0,0.0,0.0,0.0,0.0,0.0,0.0,-0.0012586899101734161,0.000980788841843605,0.0009826552122831345,0.0,0.0,0.0,0.0,0.0,0.0,0.0,0.0,0.0,-0.42161895969247687,0.1058837774176712,9.79035372591346,0.0,0.0,0.0,0.0,0.0,0.0,0.0,0.0,0.0
1702031408240082930,255,1702031408239694356,base_link,0.018124489385824418,0.014974072339888463,-0.6538000448077051,0.7563020437969911,0.0,0.0,0.0,0.0,0.0,0.0,0.0,0.0,0.0,-0.0012586899101734161,0.000980788841843605,0.0009826552122831345,0.0,0.0,0.0,0.0,0.0,0.0,0.0,0.0,0.0,-0.42161895969247687,0.1058837774176712,9.79035372591346,0.0,0.0,0.0,0.0,0.0,0.0,0.0,0.0,0.0
1702031408243353491,256,1702031408243100166,base_link,0.018124489385824418,0.014974072339888463,-0.6538000448077051,0.7563020437969911,0.0,0.0,0.0,0.0,0.0,0.0,0.0,0.0,0.0,-0.004453700967133045,0.0009806975722312927,0.0009827949106693268,0.0,0.0,0.0,0.0,0.0,0.0,0.0,0.0,0.0,-0.4303149992396653,0.1298330776317989,9.789687041646534,0.0,0.0,0.0,0.0,0.0,0.0,0.0,0.0,0.0
1702031408246580436,257,1702031408246328115,base_link,0.01812576136278877,0.014976098616253871,-0.6537984503822487,0.7563033515217459,0.0,0.0,0.0,0.0,0.0,0.0,0.0,0.0,0.0,-0.004453700967133045,0.0009806975722312927,0.0009827949106693268,0.0,0.0,0.0,0.0,0.0,0.0,0.0,0.0,0.0,-0.4303149992396653,0.1298330776317989,9.789687041646534,0.0,0.0,0.0,0.0,0.0,0.0,0.0,0.0,0.0
1702031408249990954,258,1702031408249748706,base_link,0.01812576136278877,0.014976098616253871,-0.6537984503822487,0.7563033515217459,0.0,0.0,0.0,0.0,0.0,0.0,0.0,0.0,0.0,0.0008733859285712242,-0.003280370496213436,-0.002212895080447197,0.0,0.0,0.0,0.0,0.0,0.0,0.0,0.0,0.0,-0.49445656334299964,0.10900255355900001,9.786911216021359,0.0,0.0,0.0,0.0,0.0,0.0,0.0,0.0,0.0
1702031408253386326,259,1702031408253010272,base_link,0.018127242496414064,0.014973118207387542,-0.6538038467557322,0.7562987100200758,0.0,0.0,0.0,0.0,0.0,0.0,0.0,0.0,0.0,0.0008733859285712242,-0.003280370496213436,-0.002212895080447197,0.0,0.0,0.0,0.0,0.0,0.0,0.0,0.0,0.0,-0.49445656334299964,0.10900255355900001,9.786911216021359,0.0,0.0,0.0,0.0,0.0,0.0,0.0,0.0,0.0
1702031408256684719,260,1702031408256422042,base_link,0.018127242496414064,0.014973118207387542,-0.6538038467557322,0.7562987100200758,0.0,0.0,0.0,0.0,0.0,0.0,0.0,0.0,0.0,-0.00019114557653665543,-0.0032803919166326523,-0.0022127777338027954,0.0,0.0,0.0,0.0,0.0,0.0,0.0,0.0,0.0,-0.3965657688126902,0.08920903097838082,9.791566643790865,0.0,0.0,0.0,0.0,0.0,0.0,0.0,0.0,0.0
1702031408260003955,261,1702031408259655714,base_link,0.018121255853215217,0.014974853192585586,-0.6538051021688751,0.7562977338562568,0.0,0.0,0.0,0.0,0.0,0.0,0.0,0.0,0.0,-0.00019114557653665543,-0.0032803919166326523,-0.0022127777338027954,0.0,0.0,0.0,0.0,0.0,0.0,0.0,0.0,0.0,-0.3965657688126902,0.08920903097838082,9.791566643790865,0.0,0.0,0.0,0.0,0.0,0.0,0.0,0.0,0.0
1702031408263404616,262,1702031408263085365,base_link,0.018121255853215217,0.014974853192585586,-0.6538051021688751,0.7562977338562568,0.0,0.0,0.0,0.0,0.0,0.0,0.0,0.0,0.0,-0.0023209210485219955,0.0009805280715227127,-0.0011473745107650757,0.0,0.0,0.0,0.0,0.0,0.0,0.0,0.0,0.0,-0.48190722927337276,0.12332885109564601,9.787367134059165,0.0,0.0,0.0,0.0,0.0,0.0,0.0,0.0,0.0
1702031408266650385,263,1702031408266309738,base_link,0.018123963564370973,0.014974803712692681,-0.6538089873908325,0.756294311234362,0.0,0.0,0.0,0.0,0.0,0.0,0.0,0.0,0.0,-0.0023209210485219955,0.0009805280715227127,-0.0011473745107650757,0.0,0.0,0.0,0.0,0.0,0.0,0.0,0.0,0.0,-0.48190722927337276,0.12332885109564601,9.787367134059165,0.0,0.0,0.0,0.0,0.0,0.0,0.0,0.0,0.0
1702031408270004336,264,1702031408269752740,base_link,0.018123963564370973,0.014974803712692681,-0.6538089873908325,0.756294311234362,0.0,0.0,0.0,0.0,0.0,0.0,0.0,0.0,0.0,-0.001254894770681858,0.000980454497039318,0.0009832736104726791,0.0,0.0,0.0,0.0,0.0,0.0,0.0,0.0,0.0,-0.4560934618570468,0.08873273166338914,9.788978764732448,0.0,0.0,0.0,0.0,0.0,0.0,0.0,0.0,0.0
1702031408273260768,265,1702031408272984266,base_link,0.01812478123115743,0.0149744927506564,-0.6538102038985043,0.756293246135637,0.0,0.0,0.0,0.0,0.0,0.0,0.0,0.0,0.0,-0.001254894770681858,0.000980454497039318,0.0009832736104726791,0.0,0.0,0.0,0.0,0.0,0.0,0.0,0.0,0.0,-0.4560934618570468,0.08873273166338914,9.788978764732448,0.0,0.0,0.0,0.0,0.0,0.0,0.0,0.0,0.0
1702031408277096068,266,1702031408276653051,base_link,0.01812478123115743,0.0149744927506564,-0.6538102038985043,0.756293246135637,0.0,0.0,0.0,0.0,0.0,0.0,0.0,0.0,0.0,-0.0012541590258479118,-0.0011500995606184006,-8.186884224414825e-05,0.0,0.0,0.0,0.0,0.0,0.0,0.0,0.0,0.0,-0.49250459330791446,0.12599800205344316,9.786805593708765,0.0,0.0,0.0,0.0,0.0,0.0,0.0,0.0,0.0
1702031408280128352,267,1702031408279733419,base_link,0.018127940191320056,0.01497648693918533,-0.6538087674155771,0.7562943727636114,0.0,0.0,0.0,0.0,0.0,0.0,0.0,0.0,0.0,-0.0012541590258479118,-0.0011500995606184006,-8.186884224414825e-05,0.0,0.0,0.0,0.0,0.0,0.0,0.0,0.0,0.0,-0.49250459330791446,0.12599800205344316,9.786805593708765,0.0,0.0,0.0,0.0,0.0,0.0,0.0,0.0,0.0
1702031408283958906,268,1702031408283437490,base_link,0.018127940191320056,0.01497648693918533,-0.6538087674155771,0.7562943727636114,0.0,0.0,0.0,0.0,0.0,0.0,0.0,0.0,0.0,-0.004449181258678436,-8.494406938552856e-05,0.0020487960427999496,0.0,0.0,0.0,0.0,0.0,0.0,0.0,0.0,0.0,-0.3488620491281777,0.08875221221872164,9.793386457988085,0.0,0.0,0.0,0.0,0.0,0.0,0.0,0.0,0.0
1702031408286833087,269,1702031408286491394,base_link,0.018126380270263084,0.014982362856741007,-0.6538112170521011,0.7562921760790449,0.0,0.0,0.0,0.0,0.0,0.0,0.0,0.0,0.0,-0.004449181258678436,-8.494406938552856e-05,0.0020487960427999496,0.0,0.0,0.0,0.0,0.0,0.0,0.0,0.0,0.0,-0.3488620491281777,0.08875221221872164,9.793386457988085,0.0,0.0,0.0,0.0,0.0,0.0,0.0,0.0,0.0
1702031408290071293,270,1702031408289783954,base_link,0.018126380270263084,0.014982362856741007,-0.6538112170521011,0.7562921760790449,0.0,0.0,0.0,0.0,0.0,0.0,0.0,0.0,0.0,-0.0012526633217930794,-0.0022155242040753365,-0.0011468809098005295,0.0,0.0,0.0,0.0,0.0,0.0,0.0,0.0,0.0,-0.43903046492965137,0.0709400670665364,9.789903970813414,0.0,0.0,0.0,0.0,0.0,0.0,0.0,0.0,0.0
1702031408293361211,271,1702031408292999267,base_link,0.01812435090189429,0.014982541398930026,-0.6538124650111546,0.7562911423212968,0.0,0.0,0.0,0.0,0.0,0.0,0.0,0.0,0.0,-0.0012526633217930794,-0.0022155242040753365,-0.0011468809098005295,0.0,0.0,0.0,0.0,0.0,0.0,0.0,0.0,0.0,-0.43903046492965137,0.0709400670665364,9.789903970813414,0.0,0.0,0.0,0.0,0.0,0.0,0.0,0.0,0.0
1702031408296777232,272,1702031408296423196,base_link,0.01812435090189429,0.014982541398930026,-0.6538124650111546,0.7562911423212968,0.0,0.0,0.0,0.0,0.0,0.0,0.0,0.0,0.0,-0.002317182719707489,-0.001150360330939293,-0.0011467542499303818,0.0,0.0,0.0,0.0,0.0,0.0,0.0,0.0,0.0,-0.48127025210475016,0.061206878774882,9.787984095942825,0.0,0.0,0.0,0.0,0.0,0.0,0.0,0.0,0.0
1702031408300016961,273,1702031408299654960,base_link,0.018122791849491747,0.014982676267930584,-0.6538165336724192,0.7562876596401747,0.0,0.0,0.0,0.0,0.0,0.0,0.0,0.0,0.0,-0.002317182719707489,-0.001150360330939293,-0.0011467542499303818,0.0,0.0,0.0,0.0,0.0,0.0,0.0,0.0,0.0,-0.48127025210475016,0.061206878774882,9.787984095942825,0.0,0.0,0.0,0.0,0.0,0.0,0.0,0.0,0.0
1702031408303428717,274,1702031408303096055,base_link,0.018122791849491747,0.014982676267930584,-0.6538165336724192,0.7562876596401747,0.0,0.0,0.0,0.0,0.0,0.0,0.0,0.0,0.0,-0.002316441386938095,0.0031106267124414444,-0.001146635040640831,0.0,0.0,0.0,0.0,0.0,0.0,0.0,0.0,0.0,-0.459489718659668,0.05703155290747246,9.789055960633744,0.0,0.0,0.0,0.0,0.0,0.0,0.0,0.0,0.0
1702031408306671887,275,1702031408306321382,base_link,0.018122503535652233,0.014988575132627104,-0.653817728901107,0.756286516378345,0.0,0.0,0.0,0.0,0.0,0.0,0.0,0.0,0.0,-0.002316441386938095,0.0031106267124414444,-0.001146635040640831,0.0,0.0,0.0,0.0,0.0,0.0,0.0,0.0,0.0,-0.459489718659668,0.05703155290747246,9.789055960633744,0.0,0.0,0.0,0.0,0.0,0.0,0.0,0.0,0.0
1702031408310129657,276,1702031408309760093,base_link,0.018122503535652233,0.014988575132627104,-0.653817728901107,0.756286516378345,0.0,0.0,0.0,0.0,0.0,0.0,0.0,0.0,0.0,-0.0012504085898399353,0.003110521472990513,0.0009840205311775208,0.0,0.0,0.0,0.0,0.0,0.0,0.0,0.0,0.0,-0.4470477534082337,0.1307264134054525,9.788925319513414,0.0,0.0,0.0,0.0,0.0,0.0,0.0,0.0,0.0
1702031408313560126,277,1702031408313191890,base_link,0.018128510583448477,0.014989410354870353,-0.6538175318644891,0.7562865261974901,0.0,0.0,0.0,0.0,0.0,0.0,0.0,0.0,0.0,-0.0012504085898399353,0.003110521472990513,0.0009840205311775208,0.0,0.0,0.0,0.0,0.0,0.0,0.0,0.0,0.0,-0.4470477534082337,0.1307264134054525,9.788925319513414,0.0,0.0,0.0,0.0,0.0,0.0,0.0,0.0,0.0
1702031408317030141,278,1702031408316563367,base_link,0.018128510583448477,0.014989410354870353,-0.6538175318644891,0.7562865261974901,0.0,0.0,0.0,0.0,0.0,0.0,0.0,0.0,0.0,-0.0023148972541093826,0.0009798798710107803,0.0031146742403507233,0.0,0.0,0.0,0.0,0.0,0.0,0.0,0.0,0.0,-0.4678640533971095,0.12445902916921116,9.788034183511881,0.0,0.0,0.0,0.0,0.0,0.0,0.0,0.0,0.0
1702031408319807071,279,1702031408319578647,base_link,0.018127434811798408,0.014985344886943737,-0.6538107108938461,0.756292529294219,0.0,0.0,0.0,0.0,0.0,0.0,0.0,0.0,0.0,-0.0023148972541093826,0.0009798798710107803,0.0031146742403507233,0.0,0.0,0.0,0.0,0.0,0.0,0.0,0.0,0.0,-0.4678640533971095,0.12445902916921116,9.788034183511881,0.0,0.0,0.0,0.0,0.0,0.0,0.0,0.0,0.0
1702031408323469369,280,1702031408323081731,base_link,0.018127434811798408,0.014985344886943737,-0.6538107108938461,0.756292529294219,0.0,0.0,0.0,0.0,0.0,0.0,0.0,0.0,0.0,-0.002314126119017601,-8.545257151126862e-05,0.0009842738509178162,0.0,0.0,0.0,0.0,0.0,0.0,0.0,0.0,0.0,-0.46155725529987973,0.09396924069041389,9.788673795866533,0.0,0.0,0.0,0.0,0.0,0.0,0.0,0.0,0.0
1702031408326397245,281,1702031408326197385,base_link,0.018127119615706073,0.014992073956163102,-0.6538076627499384,0.7562950385811041,0.0,0.0,0.0,0.0,0.0,0.0,0.0,0.0,0.0,-0.002314126119017601,-8.545257151126862e-05,0.0009842738509178162,0.0,0.0,0.0,0.0,0.0,0.0,0.0,0.0,0.0,-0.46155725529987973,0.09396924069041389,9.788673795866533,0.0,0.0,0.0,0.0,0.0,0.0,0.0,0.0,0.0
1702031408329783413,282,1702031408329529523,base_link,0.018127119615706073,0.014992073956163102,-0.6538076627499384,0.7562950385811041,0.0,0.0,0.0,0.0,0.0,0.0,0.0,0.0,0.0,0.0030129621736705303,-0.0032813213765621185,-8.087232708930969e-05,0.0,0.0,0.0,0.0,0.0,0.0,0.0,0.0,0.0,-0.47936226612590116,0.06385584796895874,9.78806080122589,0.0,0.0,0.0,0.0,0.0,0.0,0.0,0.0,0.0
1702031408333071583,283,1702031408332882165,base_link,0.018131251201732194,0.014987714492171808,-0.6538091687948044,0.7562937239882451,0.0,0.0,0.0,0.0,0.0,0.0,0.0,0.0,0.0,0.0030129621736705303,-0.0032813213765621185,-8.087232708930969e-05,0.0,0.0,0.0,0.0,0.0,0.0,0.0,0.0,0.0,-0.47936226612590116,0.06385584796895874,9.78806080122589,0.0,0.0,0.0,0.0,0.0,0.0,0.0,0.0,0.0
1702031408336447467,284,1702031408336305379,base_link,0.018131251201732194,0.014987714492171808,-0.6538091687948044,0.7562937239882451,0.0,0.0,0.0,0.0,0.0,0.0,0.0,0.0,0.0,-0.0033778855577111244,-8.560344576835632e-05,-8.074380457401276e-05,0.0,0.0,0.0,0.0,0.0,0.0,0.0,0.0,0.0,-0.42462999298967385,0.0596158646758787,9.790614654746276,0.0,0.0,0.0,0.0,0.0,0.0,0.0,0.0,0.0
1702031408340103026,285,1702031408339598655,base_link,0.018124314225471998,0.01498401528599336,-0.6538078067570823,0.7562951410284605,0.0,0.0,0.0,0.0,0.0,0.0,0.0,0.0,0.0,-0.0033778855577111244,-8.560344576835632e-05,-8.074380457401276e-05,0.0,0.0,0.0,0.0,0.0,0.0,0.0,0.0,0.0,-0.42462999298967385,0.0596158646758787,9.790614654746276,0.0,0.0,0.0,0.0,0.0,0.0,0.0,0.0,0.0
1702031408343468768,286,1702031408343109607,base_link,0.018124314225471998,0.01498401528599336,-0.6538078067570823,0.7562951410284605,0.0,0.0,0.0,0.0,0.0,0.0,0.0,0.0,0.0,0.0008839387446641922,0.005240640603005886,-0.0032764263451099396,0.0,0.0,0.0,0.0,0.0,0.0,0.0,0.0,0.0,-0.47530978715675687,0.1124426497519753,9.787820863540043,0.0,0.0,0.0,0.0,0.0,0.0,0.0,0.0,0.0
1702031408346764938,287,1702031408346307754,base_link,0.018133902831206705,0.014981538115249427,-0.6538103521256473,0.7562927598074352,0.0,0.0,0.0,0.0,0.0,0.0,0.0,0.0,0.0,0.0008839387446641922,0.005240640603005886,-0.0032764263451099396,0.0,0.0,0.0,0.0,0.0,0.0,0.0,0.0,0.0,-0.47530978715675687,0.1124426497519753,9.787820863540043,0.0,0.0,0.0,0.0,0.0,0.0,0.0,0.0,0.0
1702031408350121044,288,1702031408349740505,base_link,0.018133902831206705,0.014981538115249427,-0.6538103521256473,0.7562927598074352,0.0,0.0,0.0,0.0,0.0,0.0,0.0,0.0,0.0,-0.00231110118329525,-8.57226550579071e-05,-0.001145780086517334,0.0,0.0,0.0,0.0,0.0,0.0,0.0,0.0,0.0,-0.45280330288049064,0.12011073074975091,9.788796789251439,0.0,0.0,0.0,0.0,0.0,0.0,0.0,0.0,0.0
1702031408353329475,289,1702031408352976560,base_link,0.018127136684557794,0.01499074112430015,-0.6538114627100815,0.7562917795567179,0.0,0.0,0.0,0.0,0.0,0.0,0.0,0.0,0.0,-0.00231110118329525,-8.57226550579071e-05,-0.001145780086517334,0.0,0.0,0.0,0.0,0.0,0.0,0.0,0.0,0.0,-0.45280330288049064,0.12011073074975091,9.788796789251439,0.0,0.0,0.0,0.0,0.0,0.0,0.0,0.0,0.0
1702031408356799653,290,1702031408356417894,base_link,0.018127136684557794,0.01499074112430015,-0.6538114627100815,0.7562917795567179,0.0,0.0,0.0,0.0,0.0,0.0,0.0,0.0,0.0,-0.0023103635758161545,0.0009794365614652634,0.0009848922491073608,0.0,0.0,0.0,0.0,0.0,0.0,0.0,0.0,0.0,-0.4375989753782803,0.09606706002279235,9.789753738308562,0.0,0.0,0.0,0.0,0.0,0.0,0.0,0.0,0.0
1702031408360101942,291,1702031408359642505,base_link,0.018125724536355463,0.014991740603195042,-0.6538072114685213,0.7562954687524412,0.0,0.0,0.0,0.0,0.0,0.0,0.0,0.0,0.0,-0.0023103635758161545,0.0009794365614652634,0.0009848922491073608,0.0,0.0,0.0,0.0,0.0,0.0,0.0,0.0,0.0,-0.4375989753782803,0.09606706002279235,9.789753738308562,0.0,0.0,0.0,0.0,0.0,0.0,0.0,0.0,0.0
1702031408363754681,292,1702031408363280534,base_link,0.018125724536355463,0.014991740603195042,-0.6538072114685213,0.7562954687524412,0.0,0.0,0.0,0.0,0.0,0.0,0.0,0.0,0.0,-0.00017907563596963882,-0.0032816780731081963,-8.024834096431732e-05,0.0,0.0,0.0,0.0,0.0,0.0,0.0,0.0,0.0,-0.47714899370078145,0.07504562220148187,9.788089547628728,0.0,0.0,0.0,0.0,0.0,0.0,0.0,0.0,0.0
1702031408366836114,293,1702031408366369009,base_link,0.01811800923389707,0.014987573516993927,-0.6538045975639354,0.7562979958890106,0.0,0.0,0.0,0.0,0.0,0.0,0.0,0.0,0.0,-0.00017907563596963882,-0.0032816780731081963,-8.024834096431732e-05,0.0,0.0,0.0,0.0,0.0,0.0,0.0,0.0,0.0,-0.47714899370078145,0.07504562220148187,9.788089547628728,0.0,0.0,0.0,0.0,0.0,0.0,0.0,0.0,0.0
1702031408370772339,294,1702031408370067119,base_link,0.01811800923389707,0.014987573516993927,-0.6538045975639354,0.7562979958890106,0.0,0.0,0.0,0.0,0.0,0.0,0.0,0.0,0.0,-0.0023088715970516205,0.002044597640633583,-0.0032759178429841995,0.0,0.0,0.0,0.0,0.0,0.0,0.0,0.0,0.0,-0.4927088671487395,0.15832812366611,9.786325672972946,0.0,0.0,0.0,0.0,0.0,0.0,0.0,0.0,0.0
1702031408373609776,295,1702031408373128652,base_link,0.01812277716618488,0.014989826103459817,-0.6538084458760339,0.7562945102024331,0.0,0.0,0.0,0.0,0.0,0.0,0.0,0.0,0.0,-0.0023088715970516205,0.002044597640633583,-0.0032759178429841995,0.0,0.0,0.0,0.0,0.0,0.0,0.0,0.0,0.0,-0.4927088671487395,0.15832812366611,9.786325672972946,0.0,0.0,0.0,0.0,0.0,0.0,0.0,0.0,0.0
1702031408377162164,296,1702031408376622438,base_link,0.01812277716618488,0.014989826103459817,-0.6538084458760339,0.7562945102024331,0.0,0.0,0.0,0.0,0.0,0.0,0.0,0.0,0.0,-0.00337339099496603,-8.601322770118713e-05,-7.999874651432037e-05,0.0,0.0,0.0,0.0,0.0,0.0,0.0,0.0,0.0,-0.48812747524354366,0.07919573334142464,9.787515496985579,0.0,0.0,0.0,0.0,0.0,0.0,0.0,0.0,0.0
1702031408380409668,297,1702031408379952192,base_link,0.018118128023604574,0.014990595990841751,-0.6538071070977669,0.7562957636911692,0.0,0.0,0.0,0.0,0.0,0.0,0.0,0.0,0.0,-0.00337339099496603,-8.601322770118713e-05,-7.999874651432037e-05,0.0,0.0,0.0,0.0,0.0,0.0,0.0,0.0,0.0,-0.48812747524354366,0.07919573334142464,9.787515496985579,0.0,0.0,0.0,0.0,0.0,0.0,0.0,0.0,0.0
1702031408383765459,298,1702031408383367061,base_link,0.018118128023604574,0.014990595990841751,-0.6538071070977669,0.7562957636911692,0.0,0.0,0.0,0.0,0.0,0.0,0.0,0.0,0.0,-0.0012420965358614922,0.005240218713879585,-7.987767457962036e-05,0.0,0.0,0.0,0.0,0.0,0.0,0.0,0.0,0.0,-0.4170977657246451,0.0707331846239305,9.79086442917174,0.0,0.0,0.0,0.0,0.0,0.0,0.0,0.0,0.0
1702031408387053216,299,1702031408386565208,base_link,0.01811805503406681,0.014995177871740406,-0.6538027920962108,0.7562994048454464,0.0,0.0,0.0,0.0,0.0,0.0,0.0,0.0,0.0,-0.0012420965358614922,0.005240218713879585,-7.987767457962036e-05,0.0,0.0,0.0,0.0,0.0,0.0,0.0,0.0,0.0,-0.4170977657246451,0.0707331846239305,9.79086442917174,0.0,0.0,0.0,0.0,0.0,0.0,0.0,0.0,0.0
1702031408390569891,300,1702031408390036106,base_link,0.01811805503406681,0.014995177871740406,-0.6538027920962108,0.7562994048454464,0.0,0.0,0.0,0.0,0.0,0.0,0.0,0.0,0.0,-0.0012413347139954567,-0.003281957469880581,0.0009855180978775024,0.0,0.0,0.0,0.0,0.0,0.0,0.0,0.0,0.0,-0.5053838252157052,0.015420056066521465,9.786947910921016,0.0,0.0,0.0,0.0,0.0,0.0,0.0,0.0,0.0
1702031408393637708,301,1702031408393201112,base_link,0.018120286134696018,0.014998147343811817,-0.6538001259925471,0.7563015972869418,0.0,0.0,0.0,0.0,0.0,0.0,0.0,0.0,0.0,-0.0012413347139954567,-0.003281957469880581,0.0009855180978775024,0.0,0.0,0.0,0.0,0.0,0.0,0.0,0.0,0.0,-0.5053838252157052,0.015420056066521465,9.786947910921016,0.0,0.0,0.0,0.0,0.0,0.0,0.0,0.0,0.0
1702031408397136608,302,1702031408396579742,base_link,0.018120286134696018,0.014998147343811817,-0.6538001259925471,0.7563015972869418,0.0,0.0,0.0,0.0,0.0,0.0,0.0,0.0,0.0,-0.0023058131337165833,-8.63056629896164e-05,0.003116171807050705,0.0,0.0,0.0,0.0,0.0,0.0,0.0,0.0,0.0,-0.459016621894992,0.1516494225191661,9.78806958462565,0.0,0.0,0.0,0.0,0.0,0.0,0.0,0.0,0.0
1702031408400258990,303,1702031408399754524,base_link,0.0181157183978174,0.014996222381898981,-0.6537974296335795,0.7563040757960573,0.0,0.0,0.0,0.0,0.0,0.0,0.0,0.0,0.0,-0.0023058131337165833,-8.63056629896164e-05,0.003116171807050705,0.0,0.0,0.0,0.0,0.0,0.0,0.0,0.0,0.0,-0.459016621894992,0.1516494225191661,9.78806958462565,0.0,0.0,0.0,0.0,0.0,0.0,0.0,0.0,0.0
1702031408403915779,304,1702031408403350591,base_link,0.0181157183978174,0.014996222381898981,-0.6537974296335795,0.7563040757960573,0.0,0.0,0.0,0.0,0.0,0.0,0.0,0.0,0.0,-0.0033703716471791267,0.000978916883468628,-0.002210022881627083,0.0,0.0,0.0,0.0,0.0,0.0,0.0,0.0,0.0,-0.44279597293974343,0.0869654976607407,9.789605136498867,0.0,0.0,0.0,0.0,0.0,0.0,0.0,0.0,0.0
1702031408407088429,305,1702031408406553268,base_link,0.01811038451450331,0.014991870020891657,-0.6537974946240369,0.7563042336449969,0.0,0.0,0.0,0.0,0.0,0.0,0.0,0.0,0.0,-0.0033703716471791267,0.000978916883468628,-0.002210022881627083,0.0,0.0,0.0,0.0,0.0,0.0,0.0,0.0,0.0,-0.44279597293974343,0.0869654976607407,9.789605136498867,0.0,0.0,0.0,0.0,0.0,0.0,0.0,0.0,0.0
1702031408410616348,306,1702031408410029411,base_link,0.01811038451450331,0.014991870020891657,-0.6537974946240369,0.7563042336449969,0.0,0.0,0.0,0.0,0.0,0.0,0.0,0.0,0.0,-0.00017380807548761368,-0.0011516278609633446,-7.938779890537262e-05,0.0,0.0,0.0,0.0,0.0,0.0,0.0,0.0,0.0,-0.42044411026232953,0.10790061090010693,9.790382229939397,0.0,0.0,0.0,0.0,0.0,0.0,0.0,0.0,0.0
1702031408413841780,307,1702031408413217067,base_link,0.018111398476446175,0.014985529588846056,-0.6537989272771341,0.7563030965422778,0.0,0.0,0.0,0.0,0.0,0.0,0.0,0.0,0.0,-0.00017380807548761368,-0.0011516278609633446,-7.938779890537262e-05,0.0,0.0,0.0,0.0,0.0,0.0,0.0,0.0,0.0,-0.42044411026232953,0.10790061090010693,9.790382229939397,0.0,0.0,0.0,0.0,0.0,0.0,0.0,0.0,0.0
1702031408417304756,308,1702031408416638135,base_link,0.018111398476446175,0.014985529588846056,-0.6537989272771341,0.7563030965422778,0.0,0.0,0.0,0.0,0.0,0.0,0.0,0.0,0.0,-0.0012383479624986649,-0.0011516418308019638,-0.002209804952144623,0.0,0.0,0.0,0.0,0.0,0.0,0.0,0.0,0.0,-0.4379346222093837,0.11520117673560137,9.78953226439083,0.0,0.0,0.0,0.0,0.0,0.0,0.0,0.0,0.0
1702031408420555311,309,1702031408419901132,base_link,0.01810908167487506,0.0149862772747332,-0.6538015222970474,0.7563008938884055,0.0,0.0,0.0,0.0,0.0,0.0,0.0,0.0,0.0,-0.0012383479624986649,-0.0011516418308019638,-0.002209804952144623,0.0,0.0,0.0,0.0,0.0,0.0,0.0,0.0,0.0,-0.4379346222093837,0.11520117673560137,9.78953226439083,0.0,0.0,0.0,0.0,0.0,0.0,0.0,0.0,0.0
1702031408423932253,310,1702031408423369646,base_link,0.01810908167487506,0.0149862772747332,-0.6538015222970474,0.7563008938884055,0.0,0.0,0.0,0.0,0.0,0.0,0.0,0.0,0.0,-0.000172334723174572,-0.003282223828136921,-7.915869355201721e-05,0.0,0.0,0.0,0.0,0.0,0.0,0.0,0.0,0.0,-0.4834394747685717,0.07567250820573501,9.78777604697499,0.0,0.0,0.0,0.0,0.0,0.0,0.0,0.0,0.0
1702031408427029613,311,1702031408426567077,base_link,0.018110019400444394,0.014989093546890476,-0.6538002136359322,0.7563019469243535,0.0,0.0,0.0,0.0,0.0,0.0,0.0,0.0,0.0,-0.000172334723174572,-0.003282223828136921,-7.915869355201721e-05,0.0,0.0,0.0,0.0,0.0,0.0,0.0,0.0,0.0,-0.4834394747685717,0.07567250820573501,9.78777604697499,0.0,0.0,0.0,0.0,0.0,0.0,0.0,0.0,0.0
1702031408430461936,312,1702031408430020093,base_link,0.018110019400444394,0.014989093546890476,-0.6538002136359322,0.7563019469243535,0.0,0.0,0.0,0.0,0.0,0.0,0.0,0.0,0.0,-0.0033674007281661034,-8.652172982692719e-05,-0.0032748281955718994,0.0,0.0,0.0,0.0,0.0,0.0,0.0,0.0,0.0,-0.4812421001018724,0.09885563588427349,9.787677641010838,0.0,0.0,0.0,0.0,0.0,0.0,0.0,0.0,0.0
1702031408433673051,313,1702031408433232784,base_link,0.018110109737221464,0.014990965648886015,-0.6538081300024217,0.7562950641230949,0.0,0.0,0.0,0.0,0.0,0.0,0.0,0.0,0.0,-0.0033674007281661034,-8.652172982692719e-05,-0.0032748281955718994,0.0,0.0,0.0,0.0,0.0,0.0,0.0,0.0,0.0,-0.4812421001018724,0.09885563588427349,9.787677641010838,0.0,0.0,0.0,0.0,0.0,0.0,0.0,0.0,0.0
1702031408437132258,314,1702031408436635494,base_link,0.018110109737221464,0.014990965648886015,-0.6538081300024217,0.7562950641230949,0.0,0.0,0.0,0.0,0.0,0.0,0.0,0.0,0.0,-0.001236150972545147,-8.656736463308334e-05,-0.0011441893875598907,0.0,0.0,0.0,0.0,0.0,0.0,0.0,0.0,0.0,-0.44780289742371887,0.0934974984382733,9.789317176537121,0.0,0.0,0.0,0.0,0.0,0.0,0.0,0.0,0.0
1702031408440270409,315,1702031408439910411,base_link,0.01810559431127226,0.014984579786843387,-0.6538067266211209,0.756296511989988,0.0,0.0,0.0,0.0,0.0,0.0,0.0,0.0,0.0,-0.001236150972545147,-8.656736463308334e-05,-0.0011441893875598907,0.0,0.0,0.0,0.0,0.0,0.0,0.0,0.0,0.0,-0.44780289742371887,0.0934974984382733,9.789317176537121,0.0,0.0,0.0,0.0,0.0,0.0,0.0,0.0,0.0
1702031408443718587,316,1702031408443363189,base_link,0.01810559431127226,0.014984579786843387,-0.6538067266211209,0.756296511989988,0.0,0.0,0.0,0.0,0.0,0.0,0.0,0.0,0.0,-0.0012354012578725815,0.0020438963547348976,0.0009864680469036102,0.0,0.0,0.0,0.0,0.0,0.0,0.0,0.0,0.0,-0.43310342236303306,0.10016845733854021,9.789912548419004,0.0,0.0,0.0,0.0,0.0,0.0,0.0,0.0,0.0
1702031408446991518,317,1702031408446553945,base_link,0.01810707422848464,0.014978213813009183,-0.6538040344163021,0.7562989300235872,0.0,0.0,0.0,0.0,0.0,0.0,0.0,0.0,0.0,-0.0012354012578725815,0.0020438963547348976,0.0009864680469036102,0.0,0.0,0.0,0.0,0.0,0.0,0.0,0.0,0.0,-0.43310342236303306,0.10016845733854021,9.789912548419004,0.0,0.0,0.0,0.0,0.0,0.0,0.0,0.0,0.0
1702031408450345159,318,1702031408450027704,base_link,0.01810707422848464,0.014978213813009183,-0.6538040344163021,0.7562989300235872,0.0,0.0,0.0,0.0,0.0,0.0,0.0,0.0,0.0,-0.002299923449754715,0.0009785769507288933,-0.0011439453810453415,0.0,0.0,0.0,0.0,0.0,0.0,0.0,0.0,0.0,-0.44944296666226685,0.12678869430626338,9.78886743432119,0.0,0.0,0.0,0.0,0.0,0.0,0.0,0.0,0.0
1702031408453481442,319,1702031408453228712,base_link,0.018104694759542943,0.014978730057834302,-0.6538037649710485,0.756299209693624,0.0,0.0,0.0,0.0,0.0,0.0,0.0,0.0,0.0,-0.002299923449754715,0.0009785769507288933,-0.0011439453810453415,0.0,0.0,0.0,0.0,0.0,0.0,0.0,0.0,0.0,-0.44944296666226685,0.12678869430626338,9.78886743432119,0.0,0.0,0.0,0.0,0.0,0.0,0.0,0.0,0.0
1702031408456986303,320,1702031408456651926,base_link,0.018104694759542943,0.014978730057834302,-0.6538037649710485,0.756299209693624,0.0,0.0,0.0,0.0,0.0,0.0,0.0,0.0,0.0,-0.0001686401665210724,0.0009784791618585587,0.0009867064654827118,0.0,0.0,0.0,0.0,0.0,0.0,0.0,0.0,0.0,-0.4694109409709295,0.10805187615779097,9.788154992671274,0.0,0.0,0.0,0.0,0.0,0.0,0.0,0.0,0.0
1702031408460373628,321,1702031408460084199,base_link,0.018111445769615972,0.014977756109606027,-0.6538036551779262,0.7562991622566025,0.0,0.0,0.0,0.0,0.0,0.0,0.0,0.0,0.0,-0.0001686401665210724,0.0009784791618585587,0.0009867064654827118,0.0,0.0,0.0,0.0,0.0,0.0,0.0,0.0,0.0,-0.4694109409709295,0.10805187615779097,9.788154992671274,0.0,0.0,0.0,0.0,0.0,0.0,0.0,0.0,0.0
1702031408463923917,322,1702031408463358640,base_link,0.018111445769615972,0.014977756109606027,-0.6538036551779262,0.7562991622566025,0.0,0.0,0.0,0.0,0.0,0.0,0.0,0.0,0.0,-0.0022984417155385017,-0.001152094453573227,-7.84415751695633e-05,0.0,0.0,0.0,0.0,0.0,0.0,0.0,0.0,0.0,-0.49332830752904033,0.07773107491321299,9.78726647542527,0.0,0.0,0.0,0.0,0.0,0.0,0.0,0.0,0.0
1702031408467052082,323,1702031408466547012,base_link,0.01810802053705186,0.01498072369238829,-0.6538062545602038,0.7562969383832254,0.0,0.0,0.0,0.0,0.0,0.0,0.0,0.0,0.0,-0.0022984417155385017,-0.001152094453573227,-7.84415751695633e-05,0.0,0.0,0.0,0.0,0.0,0.0,0.0,0.0,0.0,-0.49332830752904033,0.07773107491321299,9.78726647542527,0.0,0.0,0.0,0.0,0.0,0.0,0.0,0.0,0.0
