%time,field.header.seq,field.header.stamp,field.header.frame_id,field.orientation.x,field.orientation.y,field.orientation.z,field.orientation.w,field.orientation_covariance0,field.orientation_covariance1,field.orientation_covariance2,field.orientation_covariance3,field.orientation_covariance4,field.orientation_covariance5,field.orientation_covariance6,field.orientation_covariance7,field.orientation_covariance8,field.angular_velocity.x,field.angular_velocity.y,field.angular_velocity.z,field.angular_velocity_covariance0,field.angular_velocity_covariance1,field.angular_velocity_covariance2,field.angular_velocity_covariance3,field.angular_velocity_covariance4,field.angular_velocity_covariance5,field.angular_velocity_covariance6,field.angular_velocity_covariance7,field.angular_velocity_covariance8,field.linear_acceleration.x,field.linear_acceleration.y,field.linear_acceleration.z,field.linear_acceleration_covariance0,field.linear_acceleration_covariance1,field.linear_acceleration_covariance2,field.linear_acceleration_covariance3,field.linear_acceleration_covariance4,field.linear_acceleration_covariance5,field.linear_acceleration_covariance6,field.linear_acceleration_covariance7,field.linear_acceleration_covariance8
1702023193268882839,40,1702023193268407344,base_link,0.012166447616031272,0.0005238067283710726,-0.9751448735419813,0.2212333130062257,0.0,0.0,0.0,0.0,0.0,0.0,0.0,0.0,0.0,-0.0023509059101343155,0.0013187918812036514,0.00048197992146015167,0.0,0.0,0.0,0.0,0.0,0.0,0.0,0.0,0.0,-0.2231605370332504,0.010941768317895369,9.797452712435877,0.0,0.0,0.0,0.0,0.0,0.0,0.0,0.0,0.0
1702023193272631355,41,1702023193272021293,base_link,0.012166447616031272,0.0005238067283710726,-0.9751448735419813,0.2212333130062257,0.0,0.0,0.0,0.0,0.0,0.0,0.0,0.0,0.0,0.002975374460220337,-0.0008117444813251495,0.0015472527593374252,0.0,0.0,0.0,0.0,0.0,0.0,0.0,0.0,0.0,-0.2387581573714457,0.06053038979701863,9.796904134174204,0.0,0.0,0.0,0.0,0.0,0.0,0.0,0.0,0.0
1702023193275676930,42,1702023193275202274,base_link,0.012170316022461066,0.0005171290320326919,-0.9751452345791022,0.22123152456904818,0.0,0.0,0.0,0.0,0.0,0.0,0.0,0.0,0.0,0.002975374460220337,-0.0008117444813251495,0.0015472527593374252,0.0,0.0,0.0,0.0,0.0,0.0,0.0,0.0,0.0,-0.2387581573714457,0.06053038979701863,9.796904134174204,0.0,0.0,0.0,0.0,0.0,0.0,0.0,0.0,0.0
1702023193278862030,43,1702023193278538227,base_link,0.012170316022461066,0.0005171290320326919,-0.9751452345791022,0.22123152456904818,0.0,0.0,0.0,0.0,0.0,0.0,0.0,0.0,0.0,-0.0002204757183790207,-0.0008117537945508957,0.003677802160382271,0.0,0.0,0.0,0.0,0.0,0.0,0.0,0.0,0.0,-0.20588760390228047,0.010890938863691779,9.797830968230166,0.0,0.0,0.0,0.0,0.0,0.0,0.0,0.0,0.0
1702023193282029999,44,1702023193281751394,base_link,0.012170613228144687,0.0005241629530275587,-0.9751445034405746,0.22123471435668682,0.0,0.0,0.0,0.0,0.0,0.0,0.0,0.0,0.0,-0.0002204757183790207,-0.0008117537945508957,0.003677802160382271,0.0,0.0,0.0,0.0,0.0,0.0,0.0,0.0,0.0,-0.20588760390228047,0.010890938863691779,9.797830968230166,0.0,0.0,0.0,0.0,0.0,0.0,0.0,0.0,0.0
1702023193285526235,45,1702023193285233259,base_link,0.012170613228144687,0.0005241629530275587,-0.9751445034405746,0.22123471435668682,0.0,0.0,0.0,0.0,0.0,0.0,0.0,0.0,0.0,0.0019100112840533257,-0.0008117780089378357,0.002612551674246788,0.0,0.0,0.0,0.0,0.0,0.0,0.0,0.0,0.0,-0.21758036703719955,0.029551710749963517,9.797539766710402,0.0,0.0,0.0,0.0,0.0,0.0,0.0,0.0,0.0
1702023193288969331,46,1702023193288508653,base_link,0.012166684244211573,0.000517403940075498,-0.9751434173358343,0.22123973357933535,0.0,0.0,0.0,0.0,0.0,0.0,0.0,0.0,0.0,0.0019100112840533257,-0.0008117780089378357,0.002612551674246788,0.0,0.0,0.0,0.0,0.0,0.0,0.0,0.0,0.0,-0.21758036703719955,0.029551710749963517,9.797539766710402,0.0,0.0,0.0,0.0,0.0,0.0,0.0,0.0,0.0
1702023193292264851,47,1702023193291961669,base_link,0.012166684244211573,0.000517403940075498,-0.9751434173358343,0.22123973357933535,0.0,0.0,0.0,0.0,0.0,0.0,0.0,0.0,0.0,-0.00235111266374588,-0.004007522016763687,-0.0005832314491271973,0.0,0.0,0.0,0.0,0.0,0.0,0.0,0.0,0.0,-0.2449506724921589,0.031821939829276114,9.796886573406429,0.0,0.0,0.0,0.0,0.0,0.0,0.0,0.0,0.0
1702023193295335935,48,1702023193295087575,base_link,0.012162380590377523,0.0005166225354663453,-0.9751438785469901,0.2212379391783053,0.0,0.0,0.0,0.0,0.0,0.0,0.0,0.0,0.0,-0.00235111266374588,-0.004007522016763687,-0.0005832314491271973,0.0,0.0,0.0,0.0,0.0,0.0,0.0,0.0,0.0,-0.2449506724921589,0.031821939829276114,9.796886573406429,0.0,0.0,0.0,0.0,0.0,0.0,0.0,0.0,0.0
1702023193298740866,49,1702023193298512458,base_link,0.012162380590377523,0.0005166225354663453,-0.9751438785469901,0.2212379391783053,0.0,0.0,0.0,0.0,0.0,0.0,0.0,0.0,0.0,0.0008446294814348221,-0.0008117072284221649,-0.0005832314491271973,0.0,0.0,0.0,0.0,0.0,0.0,0.0,0.0,0.0,-0.240487909169963,0.05280642296156176,9.796906503955066,0.0,0.0,0.0,0.0,0.0,0.0,0.0,0.0,0.0
1702023193302047707,50,1702023193301739931,base_link,0.012160098007074759,0.000513676155522131,-0.97514355851322,0.22123948210805397,0.0,0.0,0.0,0.0,0.0,0.0,0.0,0.0,0.0,0.0008446294814348221,-0.0008117072284221649,-0.0005832314491271973,0.0,0.0,0.0,0.0,0.0,0.0,0.0,0.0,0.0,-0.240487909169963,0.05280642296156176,9.796906503955066,0.0,0.0,0.0,0.0,0.0,0.0,0.0,0.0,0.0
1702023193305598727,51,1702023193305236577,base_link,0.012160098007074759,0.000513676155522131,-0.97514355851322,0.22123948210805397,0.0,0.0,0.0,0.0,0.0,0.0,0.0,0.0,0.0,-0.00022067129611968994,0.003449317067861557,0.0004820488393306732,0.0,0.0,0.0,0.0,0.0,0.0,0.0,0.0,0.0,-0.26721692123440993,0.020292548702574378,9.796335198913582,0.0,0.0,0.0,0.0,0.0,0.0,0.0,0.0,0.0
1702023193308752017,52,1702023193308448314,base_link,0.01216473127813413,0.0005159408676885112,-0.9751435606252072,0.22123921281984502,0.0,0.0,0.0,0.0,0.0,0.0,0.0,0.0,0.0,-0.00022067129611968994,0.003449317067861557,0.0004820488393306732,0.0,0.0,0.0,0.0,0.0,0.0,0.0,0.0,0.0,-0.26721692123440993,0.020292548702574378,9.796335198913582,0.0,0.0,0.0,0.0,0.0,0.0,0.0,0.0,0.0
1702023193312087380,53,1702023193311859369,base_link,0.01216473127813413,0.0005159408676885112,-0.9751435606252072,0.22123921281984502,0.0,0.0,0.0,0.0,0.0,0.0,0.0,0.0,0.0,-0.0023512542247772217,0.0002535395324230194,0.0015473272651433945,0.0,0.0,0.0,0.0,0.0,0.0,0.0,0.0,0.0,-0.171588307389354,0.03663686725284144,9.798429220682525,0.0,0.0,0.0,0.0,0.0,0.0,0.0,0.0,0.0
1702023193315301318,54,1702023193315066337,base_link,0.012161497276174426,0.0005194164608482103,-0.9751432317315727,0.22124083212338105,0.0,0.0,0.0,0.0,0.0,0.0,0.0,0.0,0.0,-0.0023512542247772217,0.0002535395324230194,0.0015473272651433945,0.0,0.0,0.0,0.0,0.0,0.0,0.0,0.0,0.0,-0.171588307389354,0.03663686725284144,9.798429220682525,0.0,0.0,0.0,0.0,0.0,0.0,0.0,0.0,0.0
1702023193319365193,55,1702023193318664073,base_link,0.012161497276174426,0.0005194164608482103,-0.9751432317315727,0.22124083212338105,0.0,0.0,0.0,0.0,0.0,0.0,0.0,0.0,0.0,-0.0002207830548286438,0.00025352463126182556,0.0004820786416530609,0.0,0.0,0.0,0.0,0.0,0.0,0.0,0.0,0.0,-0.24552187746506382,0.055225234361401296,9.796768302923969,0.0,0.0,0.0,0.0,0.0,0.0,0.0,0.0,0.0
1702023193319372804,56,1702023193319022178,base_link,0.012162348962404828,0.0005159288519188906,-0.9751428500020748,0.22124247597368718,0.0,0.0,0.0,0.0,0.0,0.0,0.0,0.0,0.0,-0.0002207830548286438,0.00025352463126182556,0.0004820786416530609,0.0,0.0,0.0,0.0,0.0,0.0,0.0,0.0,0.0,-0.24552187746506382,0.055225234361401296,9.796768302923969,0.0,0.0,0.0,0.0,0.0,0.0,0.0,0.0,0.0
1702023193325723678,57,1702023193325300216,base_link,0.012162348962404828,0.0005159288519188906,-0.9751428500020748,0.22124247597368718,0.0,0.0,0.0,0.0,0.0,0.0,0.0,0.0,0.0,0.0008444227278232574,-0.0018769707530736923,-0.0016484465450048447,0.0,0.0,0.0,0.0,0.0,0.0,0.0,0.0,0.0,-0.23974498696005223,0.013298734622495995,9.797058001506624,0.0,0.0,0.0,0.0,0.0,0.0,0.0,0.0,0.0
1702023193328915602,58,1702023193328531980,base_link,0.012154685525181973,0.0005145405140984487,-0.9751437616646298,0.2212388821034832,0.0,0.0,0.0,0.0,0.0,0.0,0.0,0.0,0.0,0.0008444227278232574,-0.0018769707530736923,-0.0016484465450048447,0.0,0.0,0.0,0.0,0.0,0.0,0.0,0.0,0.0,-0.23974498696005223,0.013298734622495995,9.797058001506624,0.0,0.0,0.0,0.0,0.0,0.0,0.0,0.0,0.0
1702023193332529947,59,1702023193331942081,base_link,0.012154685525181973,0.0005145405140984487,-0.9751437616646298,0.2212388821034832,0.0,0.0,0.0,0.0,0.0,0.0,0.0,0.0,0.0,-0.0012861676514148712,0.00025357306003570557,0.001547364518046379,0.0,0.0,0.0,0.0,0.0,0.0,0.0,0.0,0.0,-0.1681585598641347,-0.005406038247986596,9.798555683032827,0.0,0.0,0.0,0.0,0.0,0.0,0.0,0.0,0.0
1702023193332548669,60,1702023193332225799,base_link,0.012156824524586836,0.0005187629303629242,-0.975143784899256,0.22123865230753392,0.0,0.0,0.0,0.0,0.0,0.0,0.0,0.0,0.0,-0.0012861676514148712,0.00025357306003570557,0.001547364518046379,0.0,0.0,0.0,0.0,0.0,0.0,0.0,0.0,0.0,-0.1681585598641347,-0.005406038247986596,9.798555683032827,0.0,0.0,0.0,0.0,0.0,0.0,0.0,0.0,0.0
1702023193339272264,61,1702023193338642358,base_link,0.012156824524586836,0.0005187629303629242,-0.975143784899256,0.22123865230753392,0.0,0.0,0.0,0.0,0.0,0.0,0.0,0.0,0.0,0.0008443128317594528,0.0013188067823648453,0.0015473775565624237,0.0,0.0,0.0,0.0,0.0,0.0,0.0,0.0,0.0,-0.25907972325396,0.027191444921690996,9.79653705767103,0.0,0.0,0.0,0.0,0.0,0.0,0.0,0.0,0.0
1702023193339296894,62,1702023193338960647,base_link,0.012158856589917597,0.0005209375955532759,-0.9751433735405747,0.22124034864905345,0.0,0.0,0.0,0.0,0.0,0.0,0.0,0.0,0.0,0.0008443128317594528,0.0013188067823648453,0.0015473775565624237,0.0,0.0,0.0,0.0,0.0,0.0,0.0,0.0,0.0,-0.25907972325396,0.027191444921690996,9.79653705767103,0.0,0.0,0.0,0.0,0.0,0.0,0.0,0.0,0.0
1702023193345762522,63,1702023193345198869,base_link,0.012158856589917597,0.0005209375955532759,-0.9751433735405747,0.22124034864905345,0.0,0.0,0.0,0.0,0.0,0.0,0.0,0.0,0.0,0.000844249501824379,-0.000811699777841568,-0.0005831439048051834,0.0,0.0,0.0,0.0,0.0,0.0,0.0,0.0,0.0,-0.2810991725922881,0.08812310392208375,9.79557132451819,0.0,0.0,0.0,0.0,0.0,0.0,0.0,0.0,0.0
1702023193345788083,64,1702023193345472574,base_link,0.012156137028145471,0.0005184470075042828,-0.9751430274130383,0.22124202953550234,0.0,0.0,0.0,0.0,0.0,0.0,0.0,0.0,0.0,0.000844249501824379,-0.000811699777841568,-0.0005831439048051834,0.0,0.0,0.0,0.0,0.0,0.0,0.0,0.0,0.0,-0.2810991725922881,0.08812310392208375,9.79557132451819,0.0,0.0,0.0,0.0,0.0,0.0,0.0,0.0,0.0
1702023193352454184,65,1702023193351891756,base_link,0.012156137028145471,0.0005184470075042828,-0.9751430274130383,0.22124202953550234,0.0,0.0,0.0,0.0,0.0,0.0,0.0,0.0,0.0,0.000844193622469902,-0.0008116830140352249,-0.0005831290036439896,0.0,0.0,0.0,0.0,0.0,0.0,0.0,0.0,0.0,-0.23009334825283728,0.01562153764994595,9.797286002697444,0.0,0.0,0.0,0.0,0.0,0.0,0.0,0.0,0.0
1702023193352459306,66,1702023193352165699,base_link,0.012153039560711834,0.0005182340195192432,-0.9751427669289081,0.2212433483049155,0.0,0.0,0.0,0.0,0.0,0.0,0.0,0.0,0.0,0.000844193622469902,-0.0008116830140352249,-0.0005831290036439896,0.0,0.0,0.0,0.0,0.0,0.0,0.0,0.0,0.0,-0.23009334825283728,0.01562153764994595,9.797286002697444,0.0,0.0,0.0,0.0,0.0,0.0,0.0,0.0,0.0
1702023193359271558,67,1702023193358637571,base_link,0.012153039560711834,0.0005182340195192432,-0.9751427669289081,0.2212433483049155,0.0,0.0,0.0,0.0,0.0,0.0,0.0,0.0,0.0,0.0008441656827926636,0.0013188254088163376,0.000482143834233284,0.0,0.0,0.0,0.0,0.0,0.0,0.0,0.0,0.0,-0.20148608273598237,0.022572416531589635,9.79790252270738,0.0,0.0,0.0,0.0,0.0,0.0,0.0,0.0,0.0
1702023193359296379,68,1702023193358980655,base_link,0.012153362544362853,0.0005228336294231385,-0.9751415714561006,0.22124858879095194,0.0,0.0,0.0,0.0,0.0,0.0,0.0,0.0,0.0,0.0008441656827926636,0.0013188254088163376,0.000482143834233284,0.0,0.0,0.0,0.0,0.0,0.0,0.0,0.0,0.0,-0.20148608273598237,0.022572416531589635,9.79790252270738,0.0,0.0,0.0,0.0,0.0,0.0,0.0,0.0,0.0
1702023193365670744,69,1702023193365176200,base_link,0.012153362544362853,0.0005228336294231385,-0.9751415714561006,0.22124858879095194,0.0,0.0,0.0,0.0,0.0,0.0,0.0,0.0,0.0,-0.0012864284217357635,-0.0029422109946608543,-0.0005830973386764526,0.0,0.0,0.0,0.0,0.0,0.0,0.0,0.0,0.0,-0.14624752514947106,0.032015519282255794,9.798856395922574,0.0,0.0,0.0,0.0,0.0,0.0,0.0,0.0,0.0
1702023193365687244,70,1702023193365423917,base_link,0.012139426821310632,0.0005290175981260531,-0.9751421746699709,0.22124668051012827,0.0,0.0,0.0,0.0,0.0,0.0,0.0,0.0,0.0,-0.0012864284217357635,-0.0029422109946608543,-0.0005830973386764526,0.0,0.0,0.0,0.0,0.0,0.0,0.0,0.0,0.0,-0.14624752514947106,0.032015519282255794,9.798856395922574,0.0,0.0,0.0,0.0,0.0,0.0,0.0,0.0,0.0
1702023193372475280,71,1702023193372134685,base_link,0.012139426821310632,0.0005290175981260531,-0.9751421746699709,0.22124668051012827,0.0,0.0,0.0,0.0,0.0,0.0,0.0,0.0,0.0,-0.0012865010648965836,0.002384113147854805,0.0015474595129489899,0.0,0.0,0.0,0.0,0.0,0.0,0.0,0.0,0.0,-0.18046706251639774,0.017893143887248848,9.798321870338233,0.0,0.0,0.0,0.0,0.0,0.0,0.0,0.0,0.0
1702023193373221753,72,1702023193372642040,base_link,0.01213970591133403,0.0005339226884472741,-0.9751421569824628,0.22124673137142392,0.0,0.0,0.0,0.0,0.0,0.0,0.0,0.0,0.0,-0.0012865010648965836,0.002384113147854805,0.0015474595129489899,0.0,0.0,0.0,0.0,0.0,0.0,0.0,0.0,0.0,-0.18046706251639774,0.017893143887248848,9.798321870338233,0.0,0.0,0.0,0.0,0.0,0.0,0.0,0.0,0.0
1702023193375775469,73,1702023193375360965,base_link,0.01213970591133403,0.0005339226884472741,-0.9751421569824628,0.22124673137142392,0.0,0.0,0.0,0.0,0.0,0.0,0.0,0.0,0.0,-0.00022131018340587616,-0.0008116737008094788,0.00048221275210380554,0.0,0.0,0.0,0.0,0.0,0.0,0.0,0.0,0.0,-0.24275077631556694,0.008551217915675766,9.79698927922606,0.0,0.0,0.0,0.0,0.0,0.0,0.0,0.0,0.0
1702023193378935813,74,1702023193378538608,base_link,0.012136597014477243,0.0005356276502108534,-0.9751418613813917,0.22124820066514203,0.0,0.0,0.0,0.0,0.0,0.0,0.0,0.0,0.0,-0.00022131018340587616,-0.0008116737008094788,0.00048221275210380554,0.0,0.0,0.0,0.0,0.0,0.0,0.0,0.0,0.0,-0.24275077631556694,0.008551217915675766,9.79698927922606,0.0,0.0,0.0,0.0,0.0,0.0,0.0,0.0,0.0
1702023193382374855,75,1702023193381983757,base_link,0.012136597014477243,0.0005356276502108534,-0.9751418613813917,0.22124820066514203,0.0,0.0,0.0,0.0,0.0,0.0,0.0,0.0,0.0,0.0008438955992460251,0.00025359541177749634,-0.0016483087092638016,0.0,0.0,0.0,0.0,0.0,0.0,0.0,0.0,0.0,-0.2262221665811231,0.02249206918158999,9.797362789964005,0.0,0.0,0.0,0.0,0.0,0.0,0.0,0.0,0.0
1702023193385503396,76,1702023193385221004,base_link,0.012135671916941843,0.0005386478027193651,-0.9751422746995793,0.22124642238779615,0.0,0.0,0.0,0.0,0.0,0.0,0.0,0.0,0.0,0.0008438955992460251,0.00025359541177749634,-0.0016483087092638016,0.0,0.0,0.0,0.0,0.0,0.0,0.0,0.0,0.0,-0.2262221665811231,0.02249206918158999,9.797362789964005,0.0,0.0,0.0,0.0,0.0,0.0,0.0,0.0,0.0
1702023193389212242,77,1702023193388703584,base_link,0.012135671916941843,0.0005386478027193651,-0.9751422746995793,0.22124642238779615,0.0,0.0,0.0,0.0,0.0,0.0,0.0,0.0,0.0,-0.0012867003679275513,-0.0008116718381643295,-0.0005830265581607819,0.0,0.0,0.0,0.0,0.0,0.0,0.0,0.0,0.0,-0.22501110723715656,-0.04516645845229836,9.797312386193003,0.0,0.0,0.0,0.0,0.0,0.0,0.0,0.0,0.0
1702023193392278979,78,1702023193391899347,base_link,0.012130626988187987,0.0005452858499458918,-0.9751419556866162,0.22124808883219005,0.0,0.0,0.0,0.0,0.0,0.0,0.0,0.0,0.0,-0.0012867003679275513,-0.0008116718381643295,-0.0005830265581607819,0.0,0.0,0.0,0.0,0.0,0.0,0.0,0.0,0.0,-0.22501110723715656,-0.04516645845229836,9.797312386193003,0.0,0.0,0.0,0.0,0.0,0.0,0.0,0.0,0.0
1702023193399066216,79,1702023193398519277,base_link,0.012130626988187987,0.0005452858499458918,-0.9751419556866162,0.22124808883219005,0.0,0.0,0.0,0.0,0.0,0.0,0.0,0.0,0.0,0.0019090427085757256,0.00025360099971294403,-0.0016482844948768616,0.0,0.0,0.0,0.0,0.0,0.0,0.0,0.0,0.0,-0.2385077324258858,0.041219137606578714,9.797010515676098,0.0,0.0,0.0,0.0,0.0,0.0,0.0,0.0,0.0
1702023193399079699,80,1702023193398779630,base_link,0.012134301673867634,0.0005455348530848747,-0.9751427695578924,0.22124429957306194,0.0,0.0,0.0,0.0,0.0,0.0,0.0,0.0,0.0,0.0019090427085757256,0.00025360099971294403,-0.0016482844948768616,0.0,0.0,0.0,0.0,0.0,0.0,0.0,0.0,0.0,-0.2385077324258858,0.041219137606578714,9.797010515676098,0.0,0.0,0.0,0.0,0.0,0.0,0.0,0.0,0.0
1702023193406231749,81,1702023193405409574,base_link,0.012134301673867634,0.0005455348530848747,-0.9751427695578924,0.22124429957306194,0.0,0.0,0.0,0.0,0.0,0.0,0.0,0.0,0.0,0.0008437037467956543,-0.001876872032880783,-0.0016482789069414139,0.0,0.0,0.0,0.0,0.0,0.0,0.0,0.0,0.0,-0.2632193982017671,0.03411582840108369,9.796405037495274,0.0,0.0,0.0,0.0,0.0,0.0,0.0,0.0,0.0
1702023193406258447,82,1702023193405821323,base_link,0.012134667102203648,0.0005475738165806278,-0.9751435842570684,0.22124068364455918,0.0,0.0,0.0,0.0,0.0,0.0,0.0,0.0,0.0,0.0008437037467956543,-0.001876872032880783,-0.0016482789069414139,0.0,0.0,0.0,0.0,0.0,0.0,0.0,0.0,0.0,-0.2632193982017671,0.03411582840108369,9.796405037495274,0.0,0.0,0.0,0.0,0.0,0.0,0.0,0.0,0.0
1702023193409146236,83,1702023193408716440,base_link,0.012134667102203648,0.0005475738165806278,-0.9751435842570684,0.22124068364455918,0.0,0.0,0.0,0.0,0.0,0.0,0.0,0.0,0.0,0.0029741842299699783,-0.0018768738955259323,0.0004822574555873871,0.0,0.0,0.0,0.0,0.0,0.0,0.0,0.0,0.0,-0.23730137945645827,0.020322815243980927,9.797105441837841,0.0,0.0,0.0,0.0,0.0,0.0,0.0,0.0,0.0
1702023193412092795,84,1702023193411799669,base_link,0.012132087933046012,0.0005427387844676342,-0.9751432436734718,0.2212423381610687,0.0,0.0,0.0,0.0,0.0,0.0,0.0,0.0,0.0,0.0029741842299699783,-0.0018768738955259323,0.0004822574555873871,0.0,0.0,0.0,0.0,0.0,0.0,0.0,0.0,0.0,-0.23730137945645827,0.020322815243980927,9.797105441837841,0.0,0.0,0.0,0.0,0.0,0.0,0.0,0.0,0.0
1702023193415455897,85,1702023193415191650,base_link,0.012132087933046012,0.0005427387844676342,-0.9751432436734718,0.2212423381610687,0.0,0.0,0.0,0.0,0.0,0.0,0.0,0.0,0.0,0.0008436106145381927,-0.0018768664449453354,0.001547534018754959,0.0,0.0,0.0,0.0,0.0,0.0,0.0,0.0,0.0,-0.23171307972310998,0.024910268590969786,9.79722861462383,0.0,0.0,0.0,0.0,0.0,0.0,0.0,0.0,0.0
1702023193418966969,86,1702023193418546438,base_link,0.012127521444612216,0.0005495564546446675,-0.9751429483901818,0.22124387317215538,0.0,0.0,0.0,0.0,0.0,0.0,0.0,0.0,0.0,0.0008436106145381927,-0.0018768664449453354,0.001547534018754959,0.0,0.0,0.0,0.0,0.0,0.0,0.0,0.0,0.0,-0.23171307972310998,0.024910268590969786,9.79722861462383,0.0,0.0,0.0,0.0,0.0,0.0,0.0,0.0,0.0
1702023193422520466,87,1702023193422030448,base_link,0.012127521444612216,0.0005495564546446675,-0.9751429483901818,0.22124387317215538,0.0,0.0,0.0,0.0,0.0,0.0,0.0,0.0,0.0,-0.0023522917181253433,-0.0008115656673908234,-0.002713501453399658,0.0,0.0,0.0,0.0,0.0,0.0,0.0,0.0,0.0,-0.23337780921902299,0.027167799869036103,9.797183100708816,0.0,0.0,0.0,0.0,0.0,0.0,0.0,0.0,0.0
1702023193425688682,88,1702023193425256729,base_link,0.012126118131300875,0.000554607310841134,-0.9751429777610108,0.22124380803354762,0.0,0.0,0.0,0.0,0.0,0.0,0.0,0.0,0.0,-0.0023522917181253433,-0.0008115656673908234,-0.002713501453399658,0.0,0.0,0.0,0.0,0.0,0.0,0.0,0.0,0.0,-0.23337780921902299,0.027167799869036103,9.797183100708816,0.0,0.0,0.0,0.0,0.0,0.0,0.0,0.0,0.0
1702023193429163346,89,1702023193428666114,base_link,0.012126118131300875,0.000554607310841134,-0.9751429777610108,0.22124380803354762,0.0,0.0,0.0,0.0,0.0,0.0,0.0,0.0,0.0,0.0008434746414422989,0.002384185791015625,0.0004823058843612671,0.0,0.0,0.0,0.0,0.0,0.0,0.0,0.0,0.0,-0.23100972108699855,0.013199517212101717,9.79726800090253,0.0,0.0,0.0,0.0,0.0,0.0,0.0,0.0,0.0
1702023193432344712,90,1702023193431867837,base_link,0.012127238014627326,0.0005559612500636644,-0.9751434034497519,0.2212418670000304,0.0,0.0,0.0,0.0,0.0,0.0,0.0,0.0,0.0,0.0008434746414422989,0.002384185791015625,0.0004823058843612671,0.0,0.0,0.0,0.0,0.0,0.0,0.0,0.0,0.0,-0.23100972108699855,0.013199517212101717,9.79726800090253,0.0,0.0,0.0,0.0,0.0,0.0,0.0,0.0,0.0
1702023193435761814,91,1702023193435338497,base_link,0.012127238014627326,0.0005559612500636644,-0.9751434034497519,0.2212418670000304,0.0,0.0,0.0,0.0,0.0,0.0,0.0,0.0,0.0,0.0019086776301264763,0.001318925991654396,0.000482313334941864,0.0,0.0,0.0,0.0,0.0,0.0,0.0,0.0,0.0,-0.21995183770482082,0.017895864601311123,9.797515038371742,0.0,0.0,0.0,0.0,0.0,0.0,0.0,0.0,0.0
1702023193439259241,92,1702023193438661813,base_link,0.01212328821533043,0.0005588164394965574,-0.975144262172603,0.22123829134868295,0.0,0.0,0.0,0.0,0.0,0.0,0.0,0.0,0.0,0.0019086776301264763,0.001318925991654396,0.000482313334941864,0.0,0.0,0.0,0.0,0.0,0.0,0.0,0.0,0.0,-0.21995183770482082,0.017895864601311123,9.797515038371742,0.0,0.0,0.0,0.0,0.0,0.0,0.0,0.0,0.0
1702023193442498900,93,1702023193442049026,base_link,0.01212328821533043,0.0005588164394965574,-0.975144262172603,0.22123829134868295,0.0,0.0,0.0,0.0,0.0,0.0,0.0,0.0,0.0,0.0008433349430561066,0.00025370344519615173,0.00048232264816761017,0.0,0.0,0.0,0.0,0.0,0.0,0.0,0.0,0.0,-0.17848166609313335,0.015590245527840505,9.798362171256635,0.0,0.0,0.0,0.0,0.0,0.0,0.0,0.0,0.0
1702023193445695079,94,1702023193445229768,base_link,0.012124716690864392,0.0005537016348847851,-0.975143908733243,0.22123978376440026,0.0,0.0,0.0,0.0,0.0,0.0,0.0,0.0,0.0,0.0008433349430561066,0.00025370344519615173,0.00048232264816761017,0.0,0.0,0.0,0.0,0.0,0.0,0.0,0.0,0.0,-0.17848166609313335,0.015590245527840505,9.798362171256635,0.0,0.0,0.0,0.0,0.0,0.0,0.0,0.0,0.0
1702023193449044914,95,1702023193448638439,base_link,0.012124716690864392,0.0005537016348847851,-0.975143908733243,0.22123978376440026,0.0,0.0,0.0,0.0,0.0,0.0,0.0,0.0,0.0,-0.00022198259830474854,-0.0008115489035844803,-0.0005829371511936188,0.0,0.0,0.0,0.0,0.0,0.0,0.0,0.0,0.0,-0.21657490301279952,0.07196465268588531,9.797342313104549,0.0,0.0,0.0,0.0,0.0,0.0,0.0,0.0,0.0
1702023193452291626,96,1702023193451918125,base_link,0.012121890118994508,0.0005531109918211156,-0.9751443238962498,0.221238110236684,0.0,0.0,0.0,0.0,0.0,0.0,0.0,0.0,0.0,-0.00022198259830474854,-0.0008115489035844803,-0.0005829371511936188,0.0,0.0,0.0,0.0,0.0,0.0,0.0,0.0,0.0,-0.21657490301279952,0.07196465268588531,9.797342313104549,0.0,0.0,0.0,0.0,0.0,0.0,0.0,0.0,0.0
1702023193455930308,97,1702023193455393552,base_link,0.012121890118994508,0.0005531109918211156,-0.9751443238962498,0.221238110236684,0.0,0.0,0.0,0.0,0.0,0.0,0.0,0.0,0.0,-0.000222058966755867,-0.004007289186120033,0.0015476122498512268,0.0,0.0,0.0,0.0,0.0,0.0,0.0,0.0,0.0,-0.1996781769666897,0.04368847340602897,9.797868132554894,0.0,0.0,0.0,0.0,0.0,0.0,0.0,0.0,0.0
1702023193459006693,98,1702023193458572626,base_link,0.012109134860310325,0.0005546954334046937,-0.9751437200978601,0.2212414660944405,0.0,0.0,0.0,0.0,0.0,0.0,0.0,0.0,0.0,-0.000222058966755867,-0.004007289186120033,0.0015476122498512268,0.0,0.0,0.0,0.0,0.0,0.0,0.0,0.0,0.0,-0.1996781769666897,0.04368847340602897,9.797868132554894,0.0,0.0,0.0,0.0,0.0,0.0,0.0,0.0,0.0
1702023193462310325,99,1702023193461965084,base_link,0.012109134860310325,0.0005546954334046937,-0.9751437200978601,0.2212414660944405,0.0,0.0,0.0,0.0,0.0,0.0,0.0,0.0,0.0,-0.00022211670875549316,-0.0008114892989397049,0.0015476327389478683,0.0,0.0,0.0,0.0,0.0,0.0,0.0,0.0,0.0,-0.22258332784617996,0.03660724232698414,9.797403562779996,0.0,0.0,0.0,0.0,0.0,0.0,0.0,0.0,0.0
1702023193465540804,100,1702023193465188026,base_link,0.01209739115872486,0.0005572525854193855,-0.9751430728867315,0.22124495473960876,0.0,0.0,0.0,0.0,0.0,0.0,0.0,0.0,0.0,-0.00022211670875549316,-0.0008114892989397049,0.0015476327389478683,0.0,0.0,0.0,0.0,0.0,0.0,0.0,0.0,0.0,-0.22258332784617996,0.03660724232698414,9.797403562779996,0.0,0.0,0.0,0.0,0.0,0.0,0.0,0.0,0.0
1702023193468997801,101,1702023193468617439,base_link,0.01209739115872486,0.0005572525854193855,-0.9751430728867315,0.22124495473960876,0.0,0.0,0.0,0.0,0.0,0.0,0.0,0.0,0.0,0.0019083758816123009,0.004514789208769798,0.0026129167526960373,0.0,0.0,0.0,0.0,0.0,0.0,0.0,0.0,0.0,-0.2663991748413786,0.05755485717044296,9.796209415792415,0.0,0.0,0.0,0.0,0.0,0.0,0.0,0.0,0.0
1702023193472264090,102,1702023193471884012,base_link,0.012106086855903368,0.000555445209242781,-0.9751422483652286,0.2212481177204996,0.0,0.0,0.0,0.0,0.0,0.0,0.0,0.0,0.0,0.0019083758816123009,0.004514789208769798,0.0026129167526960373,0.0,0.0,0.0,0.0,0.0,0.0,0.0,0.0,0.0,-0.2663991748413786,0.05755485717044296,9.796209415792415,0.0,0.0,0.0,0.0,0.0,0.0,0.0,0.0,0.0
1702023193475740030,103,1702023193475343465,base_link,0.012106086855903368,0.000555445209242781,-0.9751422483652286,0.2212481177204996,0.0,0.0,0.0,0.0,0.0,0.0,0.0,0.0,0.0,-0.0012874826788902283,0.00025375373661518097,0.00048240087926387787,0.0,0.0,0.0,0.0,0.0,0.0,0.0,0.0,0.0,-0.21101753671678844,0.02960764063733818,9.79768314382609,0.0,0.0,0.0,0.0,0.0,0.0,0.0,0.0,0.0
1702023193479041358,104,1702023193478606939,base_link,0.012107536772995118,0.0005652419557703129,-0.9751406714233433,0.2212549637654562,0.0,0.0,0.0,0.0,0.0,0.0,0.0,0.0,0.0,-0.0012874826788902283,0.00025375373661518097,0.00048240087926387787,0.0,0.0,0.0,0.0,0.0,0.0,0.0,0.0,0.0,-0.21101753671678844,0.02960764063733818,9.79768314382609,0.0,0.0,0.0,0.0,0.0,0.0,0.0,0.0,0.0
1702023193482385229,105,1702023193481997013,base_link,0.012107536772995118,0.0005652419557703129,-0.9751406714233433,0.2212549637654562,0.0,0.0,0.0,0.0,0.0,0.0,0.0,0.0,0.0,-0.00022226572036743164,0.0002536959946155548,-0.0005828365683555603,0.0,0.0,0.0,0.0,0.0,0.0,0.0,0.0,0.0,-0.14351303925877626,0.02959049448067247,9.798904449488175,0.0,0.0,0.0,0.0,0.0,0.0,0.0,0.0,0.0
1702023193485815812,106,1702023193485271215,base_link,0.012102459599422613,0.0005622877907349123,-0.9751407644434605,0.22125483909896387,0.0,0.0,0.0,0.0,0.0,0.0,0.0,0.0,0.0,-0.00022226572036743164,0.0002536959946155548,-0.0005828365683555603,0.0,0.0,0.0,0.0,0.0,0.0,0.0,0.0,0.0,-0.14351303925877626,0.02959049448067247,9.798904449488175,0.0,0.0,0.0,0.0,0.0,0.0,0.0,0.0,0.0
1702023193489346436,107,1702023193488759756,base_link,0.012102459599422613,0.0005622877907349123,-0.9751407644434605,0.22125483909896387,0.0,0.0,0.0,0.0,0.0,0.0,0.0,0.0,0.0,-0.003418123349547386,0.0013189464807510376,0.00048245303332805634,0.0,0.0,0.0,0.0,0.0,0.0,0.0,0.0,0.0,-0.19507067046333892,0.027317055549978566,9.798020270034202,0.0,0.0,0.0,0.0,0.0,0.0,0.0,0.0,0.0
1702023193492538345,108,1702023193491986274,base_link,0.012099027305119553,0.0005690234603646597,-0.9751404569837426,0.22125636466350282,0.0,0.0,0.0,0.0,0.0,0.0,0.0,0.0,0.0,-0.003418123349547386,0.0013189464807510376,0.00048245303332805634,0.0,0.0,0.0,0.0,0.0,0.0,0.0,0.0,0.0,-0.19507067046333892,0.027317055549978566,9.798020270034202,0.0,0.0,0.0,0.0,0.0,0.0,0.0,0.0,0.0
1702023193495673719,109,1702023193495341300,base_link,0.012099027305119553,0.0005690234603646597,-0.9751404569837426,0.22125636466350282,0.0,0.0,0.0,0.0,0.0,0.0,0.0,0.0,0.0,-0.00022237561643123627,0.0002536885440349579,0.0015477295964956284,0.0,0.0,0.0,0.0,0.0,0.0,0.0,0.0,0.0,-0.2963448245465764,0.029538560063401543,9.795473812860399,0.0,0.0,0.0,0.0,0.0,0.0,0.0,0.0,0.0
1702023193498709052,110,1702023193498438835,base_link,0.012099408727896969,0.0005705582379477389,-0.9751396823230513,0.22125975397851128,0.0,0.0,0.0,0.0,0.0,0.0,0.0,0.0,0.0,-0.00022237561643123627,0.0002536885440349579,0.0015477295964956284,0.0,0.0,0.0,0.0,0.0,0.0,0.0,0.0,0.0,-0.2963448245465764,0.029538560063401543,9.795473812860399,0.0,0.0,0.0,0.0,0.0,0.0,0.0,0.0,0.0
1702023193502402590,111,1702023193502103567,base_link,0.012099408727896969,0.0005705582379477389,-0.9751396823230513,0.22125975397851128,0.0,0.0,0.0,0.0,0.0,0.0,0.0,0.0,0.0,-0.00022241845726966858,-0.0018768459558486938,0.0026130136102437973,0.0,0.0,0.0,0.0,0.0,0.0,0.0,0.0,0.0,-0.22628636982863296,0.03683166118430365,9.797317893564758,0.0,0.0,0.0,0.0,0.0,0.0,0.0,0.0,0.0
1702023193505688780,112,1702023193505254983,base_link,0.01209314240855046,0.000573178926545367,-0.9751390053231099,0.22126307344439658,0.0,0.0,0.0,0.0,0.0,0.0,0.0,0.0,0.0,-0.00022241845726966858,-0.0018768459558486938,0.0026130136102437973,0.0,0.0,0.0,0.0,0.0,0.0,0.0,0.0,0.0,-0.22628636982863296,0.03683166118430365,9.797317893564758,0.0,0.0,0.0,0.0,0.0,0.0,0.0,0.0,0.0
1702023193509032219,113,1702023193508659601,base_link,0.01209314240855046,0.000573178926545367,-0.9751390053231099,0.22126307344439658,0.0,0.0,0.0,0.0,0.0,0.0,0.0,0.0,0.0,0.000842798501253128,-0.00187685526907444,0.0026130303740501404,0.0,0.0,0.0,0.0,0.0,0.0,0.0,0.0,0.0,-0.20993429384206094,0.022482395654655662,9.797725355109455,0.0,0.0,0.0,0.0,0.0,0.0,0.0,0.0,0.0
1702023193512208213,114,1702023193511936187,base_link,0.012093802077268703,0.0005737728062400601,-0.9751382599528117,0.2212663207817346,0.0,0.0,0.0,0.0,0.0,0.0,0.0,0.0,0.0,0.000842798501253128,-0.00187685526907444,0.0026130303740501404,0.0,0.0,0.0,0.0,0.0,0.0,0.0,0.0,0.0,-0.20993429384206094,0.022482395654655662,9.797725355109455,0.0,0.0,0.0,0.0,0.0,0.0,0.0,0.0,0.0
1702023193515539767,115,1702023193515264987,base_link,0.012093802077268703,0.0005737728062400601,-0.9751382599528117,0.2212663207817346,0.0,0.0,0.0,0.0,0.0,0.0,0.0,0.0,0.0,-0.003418315201997757,0.00025362521409988403,0.0026130564510822296,0.0,0.0,0.0,0.0,0.0,0.0,0.0,0.0,0.0,-0.20699669053184416,0.07188145560979127,9.797549970602256,0.0,0.0,0.0,0.0,0.0,0.0,0.0,0.0,0.0
1702023193518996007,116,1702023193518552541,base_link,0.012090306294061886,0.0005815402394432822,-0.9751367420804254,0.22127318081828073,0.0,0.0,0.0,0.0,0.0,0.0,0.0,0.0,0.0,-0.003418315201997757,0.00025362521409988403,0.0026130564510822296,0.0,0.0,0.0,0.0,0.0,0.0,0.0,0.0,0.0,-0.20699669053184416,0.07188145560979127,9.797549970602256,0.0,0.0,0.0,0.0,0.0,0.0,0.0,0.0,0.0
1702023193522327297,117,1702023193521985054,base_link,0.012090306294061886,0.0005815402394432822,-0.9751367420804254,0.22127318081828073,0.0,0.0,0.0,0.0,0.0,0.0,0.0,0.0,0.0,-0.0023531094193458557,-0.0008116550743579865,0.0015478208661079407,0.0,0.0,0.0,0.0,0.0,0.0,0.0,0.0,0.0,-0.17698828282848889,-0.0007693916052365712,9.798401632704081,0.0,0.0,0.0,0.0,0.0,0.0,0.0,0.0,0.0
1702023193525474881,118,1702023193525143384,base_link,0.012078537821515599,0.000585893961187159,-0.9751365018157544,0.22127487087081016,0.0,0.0,0.0,0.0,0.0,0.0,0.0,0.0,0.0,-0.0023531094193458557,-0.0008116550743579865,0.0015478208661079407,0.0,0.0,0.0,0.0,0.0,0.0,0.0,0.0,0.0,-0.17698828282848889,-0.0007693916052365712,9.798401632704081,0.0,0.0,0.0,0.0,0.0,0.0,0.0,0.0,0.0
1702023193528745543,119,1702023193528514862,base_link,0.012078537821515599,0.000585893961187159,-0.9751365018157544,0.22127487087081016,0.0,0.0,0.0,0.0,0.0,0.0,0.0,0.0,0.0,0.0019078915938735008,0.0002536419779062271,0.00048256106674671173,0.0,0.0,0.0,0.0,0.0,0.0,0.0,0.0,0.0,-0.22939221188124193,0.01557393597736484,9.797302519859556,0.0,0.0,0.0,0.0,0.0,0.0,0.0,0.0,0.0
1702023193532045501,120,1702023193531733989,base_link,0.012076498973630966,0.0005807756609676343,-0.975135802736008,0.22127807639839275,0.0,0.0,0.0,0.0,0.0,0.0,0.0,0.0,0.0,0.0019078915938735008,0.0002536419779062271,0.00048256106674671173,0.0,0.0,0.0,0.0,0.0,0.0,0.0,0.0,0.0,-0.22939221188124193,0.01557393597736484,9.797302519859556,0.0,0.0,0.0,0.0,0.0,0.0,0.0,0.0,0.0
1702023193535851420,121,1702023193535299777,base_link,0.012076498973630966,0.0005807756609676343,-0.975135802736008,0.22127807639839275,0.0,0.0,0.0,0.0,0.0,0.0,0.0,0.0,0.0,-0.0002226606011390686,0.004514632746577263,0.002613108605146408,0.0,0.0,0.0,0.0,0.0,0.0,0.0,0.0,0.0,-0.17557867202100239,0.04814381054953783,9.798308747096975,0.0,0.0,0.0,0.0,0.0,0.0,0.0,0.0,0.0
1702023193538919229,122,1702023193538524866,base_link,0.012080719327351908,0.000579895331909728,-0.9751341986191921,0.2212849173017531,0.0,0.0,0.0,0.0,0.0,0.0,0.0,0.0,0.0,-0.0002226606011390686,0.004514632746577263,0.002613108605146408,0.0,0.0,0.0,0.0,0.0,0.0,0.0,0.0,0.0,-0.17557867202100239,0.04814381054953783,9.798308747096975,0.0,0.0,0.0,0.0,0.0,0.0,0.0,0.0,0.0
1702023193542142145,123,1702023193541886091,base_link,0.012080719327351908,0.000579895331909728,-0.9751341986191921,0.2212849173017531,0.0,0.0,0.0,0.0,0.0,0.0,0.0,0.0,0.0,0.0008425675332546234,-0.0008117053657770157,0.0015478581190109253,0.0,0.0,0.0,0.0,0.0,0.0,0.0,0.0,0.0,-0.2321489272525338,0.013264609587086458,9.79724098538502,0.0,0.0,0.0,0.0,0.0,0.0,0.0,0.0,0.0
1702023193545333817,124,1702023193545075654,base_link,0.012083169957743486,0.0005815230774711402,-0.9751326647742822,0.22129153830386317,0.0,0.0,0.0,0.0,0.0,0.0,0.0,0.0,0.0,0.0008425675332546234,-0.0008117053657770157,0.0015478581190109253,0.0,0.0,0.0,0.0,0.0,0.0,0.0,0.0,0.0,-0.2321489272525338,0.013264609587086458,9.79724098538502,0.0,0.0,0.0,0.0,0.0,0.0,0.0,0.0,0.0
1702023193548723255,125,1702023193548502922,base_link,0.012083169957743486,0.0005815230774711402,-0.9751326647742822,0.22129153830386317,0.0,0.0,0.0,0.0,0.0,0.0,0.0,0.0,0.0,-0.003418534994125366,-0.0008117463439702988,0.0015478860586881638,0.0,0.0,0.0,0.0,0.0,0.0,0.0,0.0,0.0,-0.24807788436098802,0.015580520152632997,9.796847177060728,0.0,0.0,0.0,0.0,0.0,0.0,0.0,0.0,0.0
1702023193551961713,126,1702023193551720142,base_link,0.012080706028444172,0.0005843969886799448,-0.9751322995068948,0.22129327481966019,0.0,0.0,0.0,0.0,0.0,0.0,0.0,0.0,0.0,-0.003418534994125366,-0.0008117463439702988,0.0015478860586881638,0.0,0.0,0.0,0.0,0.0,0.0,0.0,0.0,0.0,-0.24807788436098802,0.015580520152632997,9.796847177060728,0.0,0.0,0.0,0.0,0.0,0.0,0.0,0.0,0.0
1702023193555456328,127,1702023193555190324,base_link,0.012080706028444172,0.0005843969886799448,-0.9751322995068948,0.22129327481966019,0.0,0.0,0.0,0.0,0.0,0.0,0.0,0.0,0.0,-0.0012880638241767883,-0.0008117388933897018,0.0004826318472623825,0.0,0.0,0.0,0.0,0.0,0.0,0.0,0.0,0.0,-0.1644581473865717,0.022589897966115123,9.798593940676797,0.0,0.0,0.0,0.0,0.0,0.0,0.0,0.0,0.0
1702023193558684136,128,1702023193558419704,base_link,0.012069477849414055,0.0005893326939868642,-0.9751328765009624,0.22129133186452915,0.0,0.0,0.0,0.0,0.0,0.0,0.0,0.0,0.0,-0.0012880638241767883,-0.0008117388933897018,0.0004826318472623825,0.0,0.0,0.0,0.0,0.0,0.0,0.0,0.0,0.0,-0.1644581473865717,0.022589897966115123,9.798593940676797,0.0,0.0,0.0,0.0,0.0,0.0,0.0,0.0,0.0
1702023193562052274,129,1702023193561826229,base_link,0.012069477849414055,0.0005893326939868642,-0.9751328765009624,0.22129133186452915,0.0,0.0,0.0,0.0,0.0,0.0,0.0,0.0,0.0,-0.0012881606817245483,-0.0008116737008094788,-0.0005826186388731003,0.0,0.0,0.0,0.0,0.0,0.0,0.0,0.0,0.0,-0.2326337377167384,0.0765637484283417,9.796939294315473,0.0,0.0,0.0,0.0,0.0,0.0,0.0,0.0,0.0
1702023193565295217,130,1702023193565057039,base_link,0.012073144755946612,0.0005875831994551599,-0.9751332254616125,0.22128959876713122,0.0,0.0,0.0,0.0,0.0,0.0,0.0,0.0,0.0,-0.0012881606817245483,-0.0008116737008094788,-0.0005826186388731003,0.0,0.0,0.0,0.0,0.0,0.0,0.0,0.0,0.0,-0.2326337377167384,0.0765637484283417,9.796939294315473,0.0,0.0,0.0,0.0,0.0,0.0,0.0,0.0,0.0
1702023193568735615,131,1702023193568498849,base_link,0.012073144755946612,0.0005875831994551599,-0.9751332254616125,0.22128959876713122,0.0,0.0,0.0,0.0,0.0,0.0,0.0,0.0,0.0,-0.0012882165610790253,-0.0018769390881061554,0.0015479251742362976,0.0,0.0,0.0,0.0,0.0,0.0,0.0,0.0,0.0,-0.19479216824534182,0.0670070120628774,9.797834764453047,0.0,0.0,0.0,0.0,0.0,0.0,0.0,0.0,0.0
1702023193572000193,132,1702023193571739196,base_link,0.012069327294876996,0.0005894131696473903,-0.9751321118370212,0.22129470936973608,0.0,0.0,0.0,0.0,0.0,0.0,0.0,0.0,0.0,-0.0012882165610790253,-0.0018769390881061554,0.0015479251742362976,0.0,0.0,0.0,0.0,0.0,0.0,0.0,0.0,0.0,-0.19479216824534182,0.0670070120628774,9.797834764453047,0.0,0.0,0.0,0.0,0.0,0.0,0.0,0.0,0.0
1702023193575407650,133,1702023193575161457,base_link,0.012069327294876996,0.0005894131696473903,-0.9751321118370212,0.22129470936973608,0.0,0.0,0.0,0.0,0.0,0.0,0.0,0.0,0.0,-0.00022300519049167633,-0.0008117016404867172,-0.0005825869739055634,0.0,0.0,0.0,0.0,0.0,0.0,0.0,0.0,0.0,-0.2677830156292386,0.022680431507602575,9.796314503657339,0.0,0.0,0.0,0.0,0.0,0.0,0.0,0.0,0.0
1702023193578602442,134,1702023193578388452,base_link,0.012066857194085212,0.000587946360183595,-0.9751317892509866,0.22129626944145336,0.0,0.0,0.0,0.0,0.0,0.0,0.0,0.0,0.0,-0.00022300519049167633,-0.0008117016404867172,-0.0005825869739055634,0.0,0.0,0.0,0.0,0.0,0.0,0.0,0.0,0.0,-0.2677830156292386,0.022680431507602575,9.796314503657339,0.0,0.0,0.0,0.0,0.0,0.0,0.0,0.0,0.0
1702023193582042548,135,1702023193581820011,base_link,0.012066857194085212,0.000587946360183595,-0.9751317892509866,0.22129626944145336,0.0,0.0,0.0,0.0,0.0,0.0,0.0,0.0,0.0,-0.002353612333536148,0.002384088933467865,-0.003778364509344101,0.0,0.0,0.0,0.0,0.0,0.0,0.0,0.0,0.0,-0.2097278335830891,0.015666491145644702,9.7977430460732,0.0,0.0,0.0,0.0,0.0,0.0,0.0,0.0,0.0
1702023193585348201,136,1702023193585053205,base_link,0.012066266330969286,0.0005929919256916646,-0.975133371243196,0.22128931710610344,0.0,0.0,0.0,0.0,0.0,0.0,0.0,0.0,0.0,-0.002353612333536148,0.002384088933467865,-0.003778364509344101,0.0,0.0,0.0,0.0,0.0,0.0,0.0,0.0,0.0,-0.2097278335830891,0.015666491145644702,9.7977430460732,0.0,0.0,0.0,0.0,0.0,0.0,0.0,0.0,0.0
1702023193588872982,137,1702023193588545322,base_link,0.012066266330969286,0.0005929919256916646,-0.975133371243196,0.22128931710610344,0.0,0.0,0.0,0.0,0.0,0.0,0.0,0.0,0.0,-0.001288408413529396,0.00025354325771331787,0.0015479754656553268,0.0,0.0,0.0,0.0,0.0,0.0,0.0,0.0,0.0,-0.26163935345288053,0.0435386838637996,9.79641001753868,0.0,0.0,0.0,0.0,0.0,0.0,0.0,0.0,0.0
1702023193592149640,138,1702023193591802835,base_link,0.012065113510898846,0.0005947261146803766,-0.9751318168041023,0.22129622498621182,0.0,0.0,0.0,0.0,0.0,0.0,0.0,0.0,0.0,-0.001288408413529396,0.00025354325771331787,0.0015479754656553268,0.0,0.0,0.0,0.0,0.0,0.0,0.0,0.0,0.0,-0.26163935345288053,0.0435386838637996,9.79641001753868,0.0,0.0,0.0,0.0,0.0,0.0,0.0,0.0,0.0
1702023193595508794,139,1702023193595204591,base_link,0.012065113510898846,0.0005947261146803766,-0.9751318168041023,0.22129622498621182,0.0,0.0,0.0,0.0,0.0,0.0,0.0,0.0,0.0,-0.00022319331765174866,0.0013188011944293976,0.000482732430100441,0.0,0.0,0.0,0.0,0.0,0.0,0.0,0.0,0.0,-0.2128429000783702,0.0015670116903061316,9.797688270421784,0.0,0.0,0.0,0.0,0.0,0.0,0.0,0.0,0.0
1702023193599013044,140,1702023193598561286,base_link,0.012073463264773281,0.0005935351933722146,-0.9751313477623713,0.2212978396006384,0.0,0.0,0.0,0.0,0.0,0.0,0.0,0.0,0.0,-0.00022319331765174866,0.0013188011944293976,0.000482732430100441,0.0,0.0,0.0,0.0,0.0,0.0,0.0,0.0,0.0,-0.2128429000783702,0.0015670116903061316,9.797688270421784,0.0,0.0,0.0,0.0,0.0,0.0,0.0,0.0,0.0
1702023193602406100,141,1702023193602004766,base_link,0.012073463264773281,0.0005935351933722146,-0.9751313477623713,0.2212978396006384,0.0,0.0,0.0,0.0,0.0,0.0,0.0,0.0,0.0,-0.0023537687957286835,-0.001877032220363617,0.00048274919390678406,0.0,0.0,0.0,0.0,0.0,0.0,0.0,0.0,0.0,-0.21146424321031126,0.027328958962625504,9.797680133676824,0.0,0.0,0.0,0.0,0.0,0.0,0.0,0.0,0.0
1702023193605587537,142,1702023193605222940,base_link,0.0120690210456362,0.0005999377089784545,-0.9751298732799025,0.22130456173081162,0.0,0.0,0.0,0.0,0.0,0.0,0.0,0.0,0.0,-0.0023537687957286835,-0.001877032220363617,0.00048274919390678406,0.0,0.0,0.0,0.0,0.0,0.0,0.0,0.0,0.0,-0.21146424321031126,0.027328958962625504,9.797680133676824,0.0,0.0,0.0,0.0,0.0,0.0,0.0,0.0,0.0
1702023193608835132,143,1702023193608543634,base_link,0.0120690210456362,0.0005999377089784545,-0.9751298732799025,0.22130456173081162,0.0,0.0,0.0,0.0,0.0,0.0,0.0,0.0,0.0,-0.0023538246750831604,0.0013187229633331299,-0.0016477536410093307,0.0,0.0,0.0,0.0,0.0,0.0,0.0,0.0,0.0,-0.21673311129745007,0.027406001284642528,9.797564782616185,0.0,0.0,0.0,0.0,0.0,0.0,0.0,0.0,0.0
1702023193612124870,144,1702023193611756801,base_link,0.012066722512993252,0.0006058266266874392,-0.9751310879959952,0.22129931858376672,0.0,0.0,0.0,0.0,0.0,0.0,0.0,0.0,0.0,-0.0023538246750831604,0.0013187229633331299,-0.0016477536410093307,0.0,0.0,0.0,0.0,0.0,0.0,0.0,0.0,0.0,-0.21673311129745007,0.027406001284642528,9.797564782616185,0.0,0.0,0.0,0.0,0.0,0.0,0.0,0.0,0.0
1702023193615409890,145,1702023193615160942,base_link,0.012066722512993252,0.0006058266266874392,-0.9751310879959952,0.22129931858376672,0.0,0.0,0.0,0.0,0.0,0.0,0.0,0.0,0.0,0.0008418932557106018,-0.0018770229071378708,-0.0016477536410093307,0.0,0.0,0.0,0.0,0.0,0.0,0.0,0.0,0.0,-0.20598398127465026,0.013228104149292654,9.79782606585353,0.0,0.0,0.0,0.0,0.0,0.0,0.0,0.0,0.0
1702023193618684127,146,1702023193618405103,base_link,0.012068974790230457,0.0006032357439374743,-0.975131484223343,0.22129745690027774,0.0,0.0,0.0,0.0,0.0,0.0,0.0,0.0,0.0,0.0008418932557106018,-0.0018770229071378708,-0.0016477536410093307,0.0,0.0,0.0,0.0,0.0,0.0,0.0,0.0,0.0,-0.20598398127465026,0.013228104149292654,9.79782606585353,0.0,0.0,0.0,0.0,0.0,0.0,0.0,0.0,0.0
1702023193622190719,147,1702023193621883153,base_link,0.012068974790230457,0.0006032357439374743,-0.975131484223343,0.22129745690027774,0.0,0.0,0.0,0.0,0.0,0.0,0.0,0.0,0.0,0.0008418522775173187,-0.0008117761462926865,-0.0005824863910675049,0.0,0.0,0.0,0.0,0.0,0.0,0.0,0.0,0.0,-0.1905925018447168,0.04842568215181838,9.798026814188086,0.0,0.0,0.0,0.0,0.0,0.0,0.0,0.0,0.0
1702023193625343727,148,1702023193625077962,base_link,0.012068679337130597,0.0006056199632752039,-0.9751318925952602,0.2212956670319223,0.0,0.0,0.0,0.0,0.0,0.0,0.0,0.0,0.0,0.0008418522775173187,-0.0008117761462926865,-0.0005824863910675049,0.0,0.0,0.0,0.0,0.0,0.0,0.0,0.0,0.0,-0.1905925018447168,0.04842568215181838,9.798026814188086,0.0,0.0,0.0,0.0,0.0,0.0,0.0,0.0,0.0
1702023193628768936,149,1702023193628508567,base_link,0.012068679337130597,0.0006056199632752039,-0.9751318925952602,0.2212956670319223,0.0,0.0,0.0,0.0,0.0,0.0,0.0,0.0,0.0,0.0019070794805884361,-0.0008118264377117157,0.0026133228093385696,0.0,0.0,0.0,0.0,0.0,0.0,0.0,0.0,0.0,-0.2661517686695763,0.04351775130247679,9.796288554414659,0.0,0.0,0.0,0.0,0.0,0.0,0.0,0.0,0.0
1702023193632057781,150,1702023193631721258,base_link,0.012062932762572856,0.000596427816193366,-0.9751316582433844,0.22129703797957453,0.0,0.0,0.0,0.0,0.0,0.0,0.0,0.0,0.0,0.0019070794805884361,-0.0008118264377117157,0.0026133228093385696,0.0,0.0,0.0,0.0,0.0,0.0,0.0,0.0,0.0,-0.2661517686695763,0.04351775130247679,9.796288554414659,0.0,0.0,0.0,0.0,0.0,0.0,0.0,0.0,0.0
1702023193635384683,151,1702023193635155439,base_link,0.012062932762572856,0.000596427816193366,-0.9751316582433844,0.22129703797957453,0.0,0.0,0.0,0.0,0.0,0.0,0.0,0.0,0.0,0.002972295507788658,-0.0008117575198411942,0.00048278458416461945,0.0,0.0,0.0,0.0,0.0,0.0,0.0,0.0,0.0,-0.17718821639440097,0.07114865832793049,9.798139731826094,0.0,0.0,0.0,0.0,0.0,0.0,0.0,0.0,0.0
1702023193638777529,152,1702023193638451099,base_link,0.012066636645902204,0.0005932051478607283,-0.975131657770408,0.22129684679553005,0.0,0.0,0.0,0.0,0.0,0.0,0.0,0.0,0.0,0.002972295507788658,-0.0008117575198411942,0.00048278458416461945,0.0,0.0,0.0,0.0,0.0,0.0,0.0,0.0,0.0,-0.17718821639440097,0.07114865832793049,9.798139731826094,0.0,0.0,0.0,0.0,0.0,0.0,0.0,0.0,0.0
1702023193642108976,153,1702023193641835927,base_link,0.012066636645902204,0.0005932051478607283,-0.975131657770408,0.22129684679553005,0.0,0.0,0.0,0.0,0.0,0.0,0.0,0.0,0.0,-0.002354102209210396,-0.0008117780089378357,0.0004828106611967087,0.0,0.0,0.0,0.0,0.0,0.0,0.0,0.0,0.0,-0.1982309217847583,0.07124534728447039,9.797735891630204,0.0,0.0,0.0,0.0,0.0,0.0,0.0,0.0,0.0
1702023193645292178,154,1702023193645059585,base_link,0.012066155682968342,0.0005940895105042087,-0.975132072726381,0.22129504216100246,0.0,0.0,0.0,0.0,0.0,0.0,0.0,0.0,0.0,-0.002354102209210396,-0.0008117780089378357,0.0004828106611967087,0.0,0.0,0.0,0.0,0.0,0.0,0.0,0.0,0.0,-0.1982309217847583,0.07124534728447039,9.797735891630204,0.0,0.0,0.0,0.0,0.0,0.0,0.0,0.0,0.0
1702023193648747702,155,1702023193648496866,base_link,0.012066155682968342,0.0005940895105042087,-0.975132072726381,0.22129504216100246,0.0,0.0,0.0,0.0,0.0,0.0,0.0,0.0,0.0,-0.00022365152835845947,0.000253504142165184,-0.001647714525461197,0.0,0.0,0.0,0.0,0.0,0.0,0.0,0.0,0.0,-0.18536531254583608,0.04827846731204853,9.798127825788903,0.0,0.0,0.0,0.0,0.0,0.0,0.0,0.0,0.0
1702023193652012180,156,1702023193651726007,base_link,0.012065063542673378,0.0005983579976046407,-0.9751324839244374,0.22129327826387918,0.0,0.0,0.0,0.0,0.0,0.0,0.0,0.0,0.0,-0.00022365152835845947,0.000253504142165184,-0.001647714525461197,0.0,0.0,0.0,0.0,0.0,0.0,0.0,0.0,0.0,-0.18536531254583608,0.04827846731204853,9.798127825788903,0.0,0.0,0.0,0.0,0.0,0.0,0.0,0.0,0.0
1702023193655473107,157,1702023193655201196,base_link,0.012065063542673378,0.0005983579976046407,-0.9751324839244374,0.22129327826387918,0.0,0.0,0.0,0.0,0.0,0.0,0.0,0.0,0.0,-0.0002237074077129364,0.0013187378644943237,0.00048283301293849945,0.0,0.0,0.0,0.0,0.0,0.0,0.0,0.0,0.0,-0.22728063405806462,0.05530549917079157,9.797208011221548,0.0,0.0,0.0,0.0,0.0,0.0,0.0,0.0,0.0
1702023193658936674,158,1702023193658550977,base_link,0.012057682799302093,0.0005951919615870618,-0.9751325727649623,0.22129329760484312,0.0,0.0,0.0,0.0,0.0,0.0,0.0,0.0,0.0,-0.0002237074077129364,0.0013187378644943237,0.00048283301293849945,0.0,0.0,0.0,0.0,0.0,0.0,0.0,0.0,0.0,-0.22728063405806462,0.05530549917079157,9.797208011221548,0.0,0.0,0.0,0.0,0.0,0.0,0.0,0.0,0.0
1702023193662378355,159,1702023193661969900,base_link,0.012057682799302093,0.0005951919615870618,-0.9751325727649623,0.22129329760484312,0.0,0.0,0.0,0.0,0.0,0.0,0.0,0.0,0.0,0.0008414741605520248,-0.002942214719951153,-0.0016476940363645554,0.0,0.0,0.0,0.0,0.0,0.0,0.0,0.0,0.0,-0.20806000767496086,0.006224587322748895,9.797789153054834,0.0,0.0,0.0,0.0,0.0,0.0,0.0,0.0,0.0
1702023193665670701,160,1702023193665307283,base_link,0.012047585552890667,0.0005979152975159416,-0.9751335271542616,0.22128963464051335,0.0,0.0,0.0,0.0,0.0,0.0,0.0,0.0,0.0,0.0008414741605520248,-0.002942214719951153,-0.0016476940363645554,0.0,0.0,0.0,0.0,0.0,0.0,0.0,0.0,0.0,-0.20806000767496086,0.006224587322748895,9.797789153054834,0.0,0.0,0.0,0.0,0.0,0.0,0.0,0.0,0.0
1702023193669042589,161,1702023193668693304,base_link,0.012047585552890667,0.0005979152975159416,-0.9751335271542616,0.22128963464051335,0.0,0.0,0.0,0.0,0.0,0.0,0.0,0.0,0.0,-0.00022386573255062103,-0.0029421700164675713,0.00048284977674484253,0.0,0.0,0.0,0.0,0.0,0.0,0.0,0.0,0.0,-0.21008030782559353,0.03878028095371913,9.797671271994846,0.0,0.0,0.0,0.0,0.0,0.0,0.0,0.0,0.0
1702023193672314014,162,1702023193672030687,base_link,0.012040565629705164,0.0005960581238217558,-0.9751336374853989,0.2212895355377757,0.0,0.0,0.0,0.0,0.0,0.0,0.0,0.0,0.0,-0.00022386573255062103,-0.0029421700164675713,0.00048284977674484253,0.0,0.0,0.0,0.0,0.0,0.0,0.0,0.0,0.0,-0.21008030782559353,0.03878028095371913,9.797671271994846,0.0,0.0,0.0,0.0,0.0,0.0,0.0,0.0,0.0
1702023193675719950,163,1702023193675466299,base_link,0.012040565629705164,0.0005960581238217558,-0.9751336374853989,0.2212895355377757,0.0,0.0,0.0,0.0,0.0,0.0,0.0,0.0,0.0,-0.0023544710129499435,-0.004007402807474136,0.00048286840319633484,0.0,0.0,0.0,0.0,0.0,0.0,0.0,0.0,0.0,-0.15950845687640428,0.02287997918506033,9.798675092007969,0.0,0.0,0.0,0.0,0.0,0.0,0.0,0.0,0.0
1702023193678933208,164,1702023193678588628,base_link,0.01202955500576035,0.0005946791362705663,-0.9751334060108702,0.22129115808076835,0.0,0.0,0.0,0.0,0.0,0.0,0.0,0.0,0.0,-0.0023544710129499435,-0.004007402807474136,0.00048286840319633484,0.0,0.0,0.0,0.0,0.0,0.0,0.0,0.0,0.0,-0.15950845687640428,0.02287997918506033,9.798675092007969,0.0,0.0,0.0,0.0,0.0,0.0,0.0,0.0,0.0
1702023193682286883,165,1702023193681900501,base_link,0.01202955500576035,0.0005946791362705663,-0.9751334060108702,0.22129115808076835,0.0,0.0,0.0,0.0,0.0,0.0,0.0,0.0,0.0,-0.0002239774912595749,0.0002536308020353317,0.0015481412410736084,0.0,0.0,0.0,0.0,0.0,0.0,0.0,0.0,0.0,-0.24651394356390532,0.052608629837661305,9.796757790600683,0.0,0.0,0.0,0.0,0.0,0.0,0.0,0.0,0.0
1702023193685429983,166,1702023193685097932,base_link,0.012032025889167115,0.0005952586395405394,-0.9751334072677678,0.22129101665116915,0.0,0.0,0.0,0.0,0.0,0.0,0.0,0.0,0.0,-0.0002239774912595749,0.0002536308020353317,0.0015481412410736084,0.0,0.0,0.0,0.0,0.0,0.0,0.0,0.0,0.0,-0.24651394356390532,0.052608629837661305,9.796757790600683,0.0,0.0,0.0,0.0,0.0,0.0,0.0,0.0,0.0
1702023193689124606,167,1702023193688686370,base_link,0.012032025889167115,0.0005952586395405394,-0.9751334072677678,0.22129101665116915,0.0,0.0,0.0,0.0,0.0,0.0,0.0,0.0,0.0,0.0019065001979470253,-0.0008116178214550018,0.000482877716422081,0.0,0.0,0.0,0.0,0.0,0.0,0.0,0.0,0.0,-0.22760306020160917,0.03666704580675012,9.797288011217118,0.0,0.0,0.0,0.0,0.0,0.0,0.0,0.0,0.0
1702023193692063023,168,1702023193691743373,base_link,0.012030121735589304,0.0005969100271171115,-0.9751330690742266,0.22129260599334544,0.0,0.0,0.0,0.0,0.0,0.0,0.0,0.0,0.0,0.0019065001979470253,-0.0008116178214550018,0.000482877716422081,0.0,0.0,0.0,0.0,0.0,0.0,0.0,0.0,0.0,-0.22760306020160917,0.03666704580675012,9.797288011217118,0.0,0.0,0.0,0.0,0.0,0.0,0.0,0.0,0.0
1702023193695639394,169,1702023193695270061,base_link,0.012030121735589304,0.0005969100271171115,-0.9751330690742266,0.22129260599334544,0.0,0.0,0.0,0.0,0.0,0.0,0.0,0.0,0.0,0.0008411779999732971,-0.0008116401731967926,-0.0005823727697134018,0.0,0.0,0.0,0.0,0.0,0.0,0.0,0.0,0.0,-0.24394704398046324,0.03667419694954316,9.796894653052636,0.0,0.0,0.0,0.0,0.0,0.0,0.0,0.0,0.0
1702023193698681666,170,1702023193698414564,base_link,0.012025615654245734,0.0005960164987538811,-0.9751331789323886,0.22129236922606227,0.0,0.0,0.0,0.0,0.0,0.0,0.0,0.0,0.0,0.0008411779999732971,-0.0008116401731967926,-0.0005823727697134018,0.0,0.0,0.0,0.0,0.0,0.0,0.0,0.0,0.0,-0.24394704398046324,0.03667419694954316,9.796894653052636,0.0,0.0,0.0,0.0,0.0,0.0,0.0,0.0,0.0
1702023193702084004,171,1702023193701842069,base_link,0.012025615654245734,0.0005960164987538811,-0.9751331789323886,0.22129236922606227,0.0,0.0,0.0,0.0,0.0,0.0,0.0,0.0,0.0,-0.0023546982556581497,0.0013188980519771576,-0.0016476176679134369,0.0,0.0,0.0,0.0,0.0,0.0,0.0,0.0,0.0,-0.2519938498126038,0.03682930219154248,9.796690395340494,0.0,0.0,0.0,0.0,0.0,0.0,0.0,0.0,0.0
1702023193705548962,172,1702023193705152273,base_link,0.012028083812117025,0.0006013322786607924,-0.9751339318430042,0.22128890294748715,0.0,0.0,0.0,0.0,0.0,0.0,0.0,0.0,0.0,-0.0023546982556581497,0.0013188980519771576,-0.0016476176679134369,0.0,0.0,0.0,0.0,0.0,0.0,0.0,0.0,0.0,-0.2519938498126038,0.03682930219154248,9.796690395340494,0.0,0.0,0.0,0.0,0.0,0.0,0.0,0.0,0.0
1702023193708795105,173,1702023193708516120,base_link,0.012028083812117025,0.0006013322786607924,-0.9751339318430042,0.22128890294748715,0.0,0.0,0.0,0.0,0.0,0.0,0.0,0.0,0.0,-0.00022423267364501953,-0.0008115991950035095,0.0004829205572605133,0.0,0.0,0.0,0.0,0.0,0.0,0.0,0.0,0.0,-0.20993300206851684,0.04107749096072626,9.797665067472906,0.0,0.0,0.0,0.0,0.0,0.0,0.0,0.0,0.0
1702023193711975018,174,1702023193711729049,base_link,0.012027241949508095,0.0006006339514312074,-0.9751335894281831,0.22129045948447906,0.0,0.0,0.0,0.0,0.0,0.0,0.0,0.0,0.0,-0.00022423267364501953,-0.0008115991950035095,0.0004829205572605133,0.0,0.0,0.0,0.0,0.0,0.0,0.0,0.0,0.0,-0.20993300206851684,0.04107749096072626,9.797665067472906,0.0,0.0,0.0,0.0,0.0,0.0,0.0,0.0,0.0
1702023193715444327,175,1702023193715185403,base_link,0.012027241949508095,0.0006006339514312074,-0.9751335894281831,0.22129045948447906,0.0,0.0,0.0,0.0,0.0,0.0,0.0,0.0,0.0,-0.0012895334511995316,0.0013188794255256653,0.0026134680956602097,0.0,0.0,0.0,0.0,0.0,0.0,0.0,0.0,0.0,-0.2071472315889094,0.03440994014042171,9.797750046845684,0.0,0.0,0.0,0.0,0.0,0.0,0.0,0.0,0.0
1702023193718618764,176,1702023193718397855,base_link,0.01202421939856141,0.0006045714822761629,-0.9751324901831575,0.22129545686790014,0.0,0.0,0.0,0.0,0.0,0.0,0.0,0.0,0.0,-0.0012895334511995316,0.0013188794255256653,0.0026134680956602097,0.0,0.0,0.0,0.0,0.0,0.0,0.0,0.0,0.0,-0.2071472315889094,0.03440994014042171,9.797750046845684,0.0,0.0,0.0,0.0,0.0,0.0,0.0,0.0,0.0
1702023193722254819,177,1702023193721877336,base_link,0.01202421939856141,0.0006045714822761629,-0.9751324901831575,0.22129545686790014,0.0,0.0,0.0,0.0,0.0,0.0,0.0,0.0,0.0,0.0008409451693296432,0.0023841075599193573,-0.0005823150277137756,0.0,0.0,0.0,0.0,0.0,0.0,0.0,0.0,0.0,-0.21959144923114174,0.024852696297799258,9.797507945335452,0.0,0.0,0.0,0.0,0.0,0.0,0.0,0.0,0.0
1702023193725398109,178,1702023193725102901,base_link,0.012023019895128164,0.000606052782678067,-0.9751317619130102,0.22129872706605114,0.0,0.0,0.0,0.0,0.0,0.0,0.0,0.0,0.0,0.0008409451693296432,0.0023841075599193573,-0.0005823150277137756,0.0,0.0,0.0,0.0,0.0,0.0,0.0,0.0,0.0,-0.21959144923114174,0.024852696297799258,9.797507945335452,0.0,0.0,0.0,0.0,0.0,0.0,0.0,0.0,0.0
1702023193728756390,179,1702023193728508949,base_link,0.012023019895128164,0.000606052782678067,-0.9751317619130102,0.22129872706605114,0.0,0.0,0.0,0.0,0.0,0.0,0.0,0.0,0.0,0.0008408986032009125,0.0002535860985517502,-0.0016475729644298553,0.0,0.0,0.0,0.0,0.0,0.0,0.0,0.0,0.0,-0.19032338204417604,0.05303577594845917,9.798008175987444,0.0,0.0,0.0,0.0,0.0,0.0,0.0,0.0,0.0
1702023193732079736,180,1702023193731725931,base_link,0.01201904349336838,0.0006016404267776775,-0.97513299641933,0.22129351530616606,0.0,0.0,0.0,0.0,0.0,0.0,0.0,0.0,0.0,0.0008408986032009125,0.0002535860985517502,-0.0016475729644298553,0.0,0.0,0.0,0.0,0.0,0.0,0.0,0.0,0.0,-0.19032338204417604,0.05303577594845917,9.798008175987444,0.0,0.0,0.0,0.0,0.0,0.0,0.0,0.0,0.0
1702023193735469550,181,1702023193735206604,base_link,0.01201904349336838,0.0006016404267776775,-0.97513299641933,0.22129351530616606,0.0,0.0,0.0,0.0,0.0,0.0,0.0,0.0,0.0,-0.0023549646139144897,0.002384088933467865,0.0015482418239116669,0.0,0.0,0.0,0.0,0.0,0.0,0.0,0.0,0.0,-0.20949391247375493,0.027074319752588494,9.797723168259367,0.0,0.0,0.0,0.0,0.0,0.0,0.0,0.0,0.0
1702023193738767300,182,1702023193738437175,base_link,0.012016292491838328,0.0006053542131413637,-0.9751318949179386,0.22129850829767778,0.0,0.0,0.0,0.0,0.0,0.0,0.0,0.0,0.0,-0.0023549646139144897,0.002384088933467865,0.0015482418239116669,0.0,0.0,0.0,0.0,0.0,0.0,0.0,0.0,0.0,-0.20949391247375493,0.027074319752588494,9.797723168259367,0.0,0.0,0.0,0.0,0.0,0.0,0.0,0.0,0.0
1702023193742283443,183,1702023193741863727,base_link,0.012016292491838328,0.0006053542131413637,-0.9751318949179386,0.22129850829767778,0.0,0.0,0.0,0.0,0.0,0.0,0.0,0.0,0.0,-0.0002244841307401657,-0.0018769297748804092,0.00048298388719558716,0.0,0.0,0.0,0.0,0.0,0.0,0.0,0.0,0.0,-0.241053064474175,0.041257551068382164,9.796948057154712,0.0,0.0,0.0,0.0,0.0,0.0,0.0,0.0,0.0
1702023193745365831,184,1702023193745100736,base_link,0.012019233767585163,0.0006023482867492003,-0.9751311065623915,0.22130183056311883,0.0,0.0,0.0,0.0,0.0,0.0,0.0,0.0,0.0,-0.0002244841307401657,-0.0018769297748804092,0.00048298388719558716,0.0,0.0,0.0,0.0,0.0,0.0,0.0,0.0,0.0,-0.241053064474175,0.041257551068382164,9.796948057154712,0.0,0.0,0.0,0.0,0.0,0.0,0.0,0.0,0.0
1702023193748723747,185,1702023193748494863,base_link,0.012019233767585163,0.0006023482867492003,-0.9751311065623915,0.22130183056311883,0.0,0.0,0.0,0.0,0.0,0.0,0.0,0.0,0.0,-0.0012898016721010208,-0.0008116830140352249,-0.0005822665989398956,0.0,0.0,0.0,0.0,0.0,0.0,0.0,0.0,0.0,-0.20152484147486657,0.092602001176717,9.79749011776213,0.0,0.0,0.0,0.0,0.0,0.0,0.0,0.0,0.0
1702023193752283424,186,1702023193751738309,base_link,0.012015543159165996,0.0006032799051688604,-0.9751315556823918,0.22130004945409434,0.0,0.0,0.0,0.0,0.0,0.0,0.0,0.0,0.0,-0.0012898016721010208,-0.0008116830140352249,-0.0005822665989398956,0.0,0.0,0.0,0.0,0.0,0.0,0.0,0.0,0.0,-0.20152484147486657,0.092602001176717,9.79749011776213,0.0,0.0,0.0,0.0,0.0,0.0,0.0,0.0,0.0
1702023193755770913,187,1702023193755361557,base_link,0.012015543159165996,0.0006032799051688604,-0.9751315556823918,0.22130004945409434,0.0,0.0,0.0,0.0,0.0,0.0,0.0,0.0,0.0,0.001905933953821659,0.0013188570737838745,-0.0005822628736495972,0.0,0.0,0.0,0.0,0.0,0.0,0.0,0.0,0.0,-0.23203646033374772,0.05533084616979242,9.797096385079506,0.0,0.0,0.0,0.0,0.0,0.0,0.0,0.0,0.0
1702023193758837879,188,1702023193758517742,base_link,0.012017882358893818,0.0006030335619841764,-0.9751323564040387,0.22129639479222807,0.0,0.0,0.0,0.0,0.0,0.0,0.0,0.0,0.0,0.001905933953821659,0.0013188570737838745,-0.0005822628736495972,0.0,0.0,0.0,0.0,0.0,0.0,0.0,0.0,0.0,-0.23203646033374772,0.05533084616979242,9.797096385079506,0.0,0.0,0.0,0.0,0.0,0.0,0.0,0.0,0.0
1702023193762185622,189,1702023193761880159,base_link,0.012017882358893818,0.0006030335619841764,-0.9751323564040387,0.22129639479222807,0.0,0.0,0.0,0.0,0.0,0.0,0.0,0.0,0.0,0.0019058706238865852,-0.004007421433925629,0.0015482734888792038,0.0,0.0,0.0,0.0,0.0,0.0,0.0,0.0,0.0,-0.23423939795660442,0.0015862511088579247,9.797200079015044,0.0,0.0,0.0,0.0,0.0,0.0,0.0,0.0,0.0
1702023193765354659,190,1702023193765087604,base_link,0.01200845660919226,0.0006069136205043694,-0.9751321212378016,0.22129793210960563,0.0,0.0,0.0,0.0,0.0,0.0,0.0,0.0,0.0,0.0019058706238865852,-0.004007421433925629,0.0015482734888792038,0.0,0.0,0.0,0.0,0.0,0.0,0.0,0.0,0.0,-0.23423939795660442,0.0015862511088579247,9.797200079015044,0.0,0.0,0.0,0.0,0.0,0.0,0.0,0.0,0.0
1702023193768726417,191,1702023193768502473,base_link,0.01200845660919226,0.0006069136205043694,-0.9751321212378016,0.22129793210960563,0.0,0.0,0.0,0.0,0.0,0.0,0.0,0.0,0.0,0.002971109002828598,0.0013188570737838745,0.004744082689285278,0.0,0.0,0.0,0.0,0.0,0.0,0.0,0.0,0.0,-0.2362446708796642,0.027231290232437484,9.797114213497423,0.0,0.0,0.0,0.0,0.0,0.0,0.0,0.0,0.0
1702023193772166140,192,1702023193771765947,base_link,0.012012933029865063,0.0006093315110393791,-0.9751309463954169,0.22130285930621932,0.0,0.0,0.0,0.0,0.0,0.0,0.0,0.0,0.0,0.002971109002828598,0.0013188570737838745,0.004744082689285278,0.0,0.0,0.0,0.0,0.0,0.0,0.0,0.0,0.0,-0.2362446708796642,0.027231290232437484,9.797114213497423,0.0,0.0,0.0,0.0,0.0,0.0,0.0,0.0,0.0
1702023193775623199,193,1702023193775252580,base_link,0.012012933029865063,0.0006093315110393791,-0.9751309463954169,0.22130285930621932,0.0,0.0,0.0,0.0,0.0,0.0,0.0,0.0,0.0,-0.001290036365389824,-0.00187692791223526,-0.0005822200328111649,0.0,0.0,0.0,0.0,0.0,0.0,0.0,0.0,0.0,-0.24532898086247987,0.05100191214588817,9.796796032178401,0.0,0.0,0.0,0.0,0.0,0.0,0.0,0.0,0.0
1702023193778667821,194,1702023193778423070,base_link,0.012008132607594695,0.0006134660725805822,-0.9751313975784963,0.22130112034796506,0.0,0.0,0.0,0.0,0.0,0.0,0.0,0.0,0.0,-0.001290036365389824,-0.00187692791223526,-0.0005822200328111649,0.0,0.0,0.0,0.0,0.0,0.0,0.0,0.0,0.0,-0.24532898086247987,0.05100191214588817,9.796796032178401,0.0,0.0,0.0,0.0,0.0,0.0,0.0,0.0,0.0
1702023193782211771,195,1702023193781859159,base_link,0.012008132607594695,0.0006134660725805822,-0.9751313975784963,0.22130112034796506,0.0,0.0,0.0,0.0,0.0,0.0,0.0,0.0,0.0,0.002970971167087555,-0.0029421569779515266,0.0015483144670724869,0.0,0.0,0.0,0.0,0.0,0.0,0.0,0.0,0.0,-0.18076087070440058,0.055297990093872915,9.7981767507998,0.0,0.0,0.0,0.0,0.0,0.0,0.0,0.0,0.0
1702023193785347456,196,1702023193785073518,base_link,0.01199876167848285,0.000612105442771091,-0.9751307946897432,0.22130428891655007,0.0,0.0,0.0,0.0,0.0,0.0,0.0,0.0,0.0,0.002970971167087555,-0.0029421569779515266,0.0015483144670724869,0.0,0.0,0.0,0.0,0.0,0.0,0.0,0.0,0.0,-0.18076087070440058,0.055297990093872915,9.7981767507998,0.0,0.0,0.0,0.0,0.0,0.0,0.0,0.0,0.0
1702023193789089154,197,1702023193788665771,base_link,0.01199876167848285,0.000612105442771091,-0.9751307946897432,0.22130428891655007,0.0,0.0,0.0,0.0,0.0,0.0,0.0,0.0,0.0,0.0008403658866882324,-0.0018768496811389923,-0.0005821995437145233,0.0,0.0,0.0,0.0,0.0,0.0,0.0,0.0,0.0,-0.235307528146277,0.027123268300484213,9.797137066281884,0.0,0.0,0.0,0.0,0.0,0.0,0.0,0.0,0.0
1702023193792211289,198,1702023193791868686,base_link,0.011998920236519427,0.0006190196787075096,-0.975130801340119,0.2213042317841494,0.0,0.0,0.0,0.0,0.0,0.0,0.0,0.0,0.0,0.0008403658866882324,-0.0018768496811389923,-0.0005821995437145233,0.0,0.0,0.0,0.0,0.0,0.0,0.0,0.0,0.0,-0.235307528146277,0.027123268300484213,9.797137066281884,0.0,0.0,0.0,0.0,0.0,0.0,0.0,0.0,0.0
1702023193795528035,199,1702023193795233726,base_link,0.011998920236519427,0.0006190196787075096,-0.975130801340119,0.2213042317841494,0.0,0.0,0.0,0.0,0.0,0.0,0.0,0.0,0.0,-0.00022497400641441345,-0.0008115936070680618,-0.0005821790546178818,0.0,0.0,0.0,0.0,0.0,0.0,0.0,0.0,0.0,-0.24167790856302776,0.02029869435866236,9.796998507273539,0.0,0.0,0.0,0.0,0.0,0.0,0.0,0.0,0.0
1702023193798978484,200,1702023193798566818,base_link,0.01200522541655429,0.0006236759253534598,-0.9751307491949494,0.22130410652659555,0.0,0.0,0.0,0.0,0.0,0.0,0.0,0.0,0.0,-0.00022497400641441345,-0.0008115936070680618,-0.0005821790546178818,0.0,0.0,0.0,0.0,0.0,0.0,0.0,0.0,0.0,-0.24167790856302776,0.02029869435866236,9.796998507273539,0.0,0.0,0.0,0.0,0.0,0.0,0.0,0.0,0.0
1702023193802224308,201,1702023193801966190,base_link,0.01200522541655429,0.0006236759253534598,-0.9751307491949494,0.22130410652659555,0.0,0.0,0.0,0.0,0.0,0.0,0.0,0.0,0.0,0.0008402522653341293,0.00025359541177749634,-0.0005821716040372849,0.0,0.0,0.0,0.0,0.0,0.0,0.0,0.0,0.0,-0.24291997864446377,0.03185935581700647,9.796937014466424,0.0,0.0,0.0,0.0,0.0,0.0,0.0,0.0,0.0
1702023193805473211,202,1702023193805120944,base_link,0.012009169544386408,0.0006211479590738406,-0.9751307442529978,0.22130392141727093,0.0,0.0,0.0,0.0,0.0,0.0,0.0,0.0,0.0,0.0008402522653341293,0.00025359541177749634,-0.0005821716040372849,0.0,0.0,0.0,0.0,0.0,0.0,0.0,0.0,0.0,-0.24291997864446377,0.03185935581700647,9.796937014466424,0.0,0.0,0.0,0.0,0.0,0.0,0.0,0.0,0.0
1702023193808830980,203,1702023193808561086,base_link,0.012009169544386408,0.0006211479590738406,-0.9751307442529978,0.22130392141727093,0.0,0.0,0.0,0.0,0.0,0.0,0.0,0.0,0.0,-0.00022507645189762115,0.0023840926587581635,-0.002712693065404892,0.0,0.0,0.0,0.0,0.0,0.0,0.0,0.0,0.0,-0.21500647701158823,0.02277466856107984,9.797614685693402,0.0,0.0,0.0,0.0,0.0,0.0,0.0,0.0,0.0
1702023193812069872,204,1702023193811759471,base_link,0.01200551136569716,0.000621947764932785,-0.9751316058947226,0.22130032097357014,0.0,0.0,0.0,0.0,0.0,0.0,0.0,0.0,0.0,-0.00022507645189762115,0.0023840926587581635,-0.002712693065404892,0.0,0.0,0.0,0.0,0.0,0.0,0.0,0.0,0.0,-0.21500647701158823,0.02277466856107984,9.797614685693402,0.0,0.0,0.0,0.0,0.0,0.0,0.0,0.0,0.0
1702023193815409398,205,1702023193815173149,base_link,0.01200551136569716,0.000621947764932785,-0.9751316058947226,0.22130032097357014,0.0,0.0,0.0,0.0,0.0,0.0,0.0,0.0,0.0,0.0008401479572057724,-0.0018769241869449615,0.0015483666211366653,0.0,0.0,0.0,0.0,0.0,0.0,0.0,0.0,0.0,-0.2839613068534013,0.0038872223176401313,9.795884384051947,0.0,0.0,0.0,0.0,0.0,0.0,0.0,0.0,0.0
1702023193818739506,206,1702023193818443298,base_link,0.012004371359783772,0.0006240078621702963,-0.9751308751609931,0.2213035968758755,0.0,0.0,0.0,0.0,0.0,0.0,0.0,0.0,0.0,0.0008401479572057724,-0.0018769241869449615,0.0015483666211366653,0.0,0.0,0.0,0.0,0.0,0.0,0.0,0.0,0.0,-0.2839613068534013,0.0038872223176401313,9.795884384051947,0.0,0.0,0.0,0.0,0.0,0.0,0.0,0.0,0.0
1702023193822297108,207,1702023193821936607,base_link,0.012004371359783772,0.0006240078621702963,-0.9751308751609931,0.2213035968758755,0.0,0.0,0.0,0.0,0.0,0.0,0.0,0.0,0.0,0.0019053434953093529,0.0023841019719839096,-0.0027126800268888474,0.0,0.0,0.0,0.0,0.0,0.0,0.0,0.0,0.0,-0.187115454295517,0.06908542967393559,9.797969943318389,0.0,0.0,0.0,0.0,0.0,0.0,0.0,0.0,0.0
1702023193825407730,208,1702023193825111865,base_link,0.01200502069734231,0.0006196167547364005,-0.9751320602307091,0.22129835214783314,0.0,0.0,0.0,0.0,0.0,0.0,0.0,0.0,0.0,0.0019053434953093529,0.0023841019719839096,-0.0027126800268888474,0.0,0.0,0.0,0.0,0.0,0.0,0.0,0.0,0.0,-0.187115454295517,0.06908542967393559,9.797969943318389,0.0,0.0,0.0,0.0,0.0,0.0,0.0,0.0,0.0
1702023193828822052,209,1702023193828531026,base_link,0.01200502069734231,0.0006196167547364005,-0.9751320602307091,0.22129835214783314,0.0,0.0,0.0,0.0,0.0,0.0,0.0,0.0,0.0,0.0019052820280194283,-0.0008116606622934341,0.00048312172293663025,0.0,0.0,0.0,0.0,0.0,0.0,0.0,0.0,0.0,-0.2319306633089186,0.022597355565446047,9.797229073923837,0.0,0.0,0.0,0.0,0.0,0.0,0.0,0.0,0.0
1702023193832030960,210,1702023193831743717,base_link,0.012003390127933057,0.0006192844169716628,-0.975132903643959,0.22129472506851372,0.0,0.0,0.0,0.0,0.0,0.0,0.0,0.0,0.0,0.0019052820280194283,-0.0008116606622934341,0.00048312172293663025,0.0,0.0,0.0,0.0,0.0,0.0,0.0,0.0,0.0,-0.2319306633089186,0.022597355565446047,9.797229073923837,0.0,0.0,0.0,0.0,0.0,0.0,0.0,0.0,0.0
1702023193835436716,211,1702023193835195541,base_link,0.012003390127933057,0.0006192844169716628,-0.975132903643959,0.22129472506851372,0.0,0.0,0.0,0.0,0.0,0.0,0.0,0.0,0.0,0.0019052224233746529,-0.0018769130110740662,0.0015483871102333069,0.0,0.0,0.0,0.0,0.0,0.0,0.0,0.0,0.0,-0.24743998297424788,0.0015657817112999595,9.796875573526151,0.0,0.0,0.0,0.0,0.0,0.0,0.0,0.0,0.0
1702023193838720640,212,1702023193838442087,base_link,0.011995427140452732,0.0006137635682837077,-0.9751326519932537,0.22129628112239993,0.0,0.0,0.0,0.0,0.0,0.0,0.0,0.0,0.0,0.0019052224233746529,-0.0018769130110740662,0.0015483871102333069,0.0,0.0,0.0,0.0,0.0,0.0,0.0,0.0,0.0,-0.24743998297424788,0.0015657817112999595,9.796875573526151,0.0,0.0,0.0,0.0,0.0,0.0,0.0,0.0,0.0
1702023193842304775,213,1702023193841940641,base_link,0.011995427140452732,0.0006137635682837077,-0.9751326519932537,0.22129628112239993,0.0,0.0,0.0,0.0,0.0,0.0,0.0,0.0,0.0,-0.0002253800630569458,-0.0008115954697132111,-0.0005821362137794495,0.0,0.0,0.0,0.0,0.0,0.0,0.0,0.0,0.0,-0.19090851166781692,-0.02657970855413931,9.798104278852414,0.0,0.0,0.0,0.0,0.0,0.0,0.0,0.0,0.0
1702023193845379033,214,1702023193845094203,base_link,0.011997133744485527,0.0006141574691853309,-0.97513266203474,0.22129614326861083,0.0,0.0,0.0,0.0,0.0,0.0,0.0,0.0,0.0,-0.0002253800630569458,-0.0008115954697132111,-0.0005821362137794495,0.0,0.0,0.0,0.0,0.0,0.0,0.0,0.0,0.0,-0.19090851166781692,-0.02657970855413931,9.798104278852414,0.0,0.0,0.0,0.0,0.0,0.0,0.0,0.0,0.0
1702023193848789015,215,1702023193848504543,base_link,0.011997133744485527,0.0006141574691853309,-0.97513266203474,0.22129614326861083,0.0,0.0,0.0,0.0,0.0,0.0,0.0,0.0,0.0,0.0008398517966270447,0.00025362707674503326,0.0015484020113945007,0.0,0.0,0.0,0.0,0.0,0.0,0.0,0.0,0.0,-0.25931597152821095,0.0738502742360325,9.79629018373311,0.0,0.0,0.0,0.0,0.0,0.0,0.0,0.0,0.0
1702023193852054909,216,1702023193851756811,base_link,0.012001139873098088,0.0006136227442223841,-0.9751310593061502,0.2213029897794872,0.0,0.0,0.0,0.0,0.0,0.0,0.0,0.0,0.0,0.0008398517966270447,0.00025362707674503326,0.0015484020113945007,0.0,0.0,0.0,0.0,0.0,0.0,0.0,0.0,0.0,-0.25931597152821095,0.0738502742360325,9.79629018373311,0.0,0.0,0.0,0.0,0.0,0.0,0.0,0.0,0.0
1702023193855463981,217,1702023193855183362,base_link,0.012001139873098088,0.0006136227442223841,-0.9751310593061502,0.2213029897794872,0.0,0.0,0.0,0.0,0.0,0.0,0.0,0.0,0.0,-0.0002254769206047058,0.0013188589364290237,-0.00164736807346344,0.0,0.0,0.0,0.0,0.0,0.0,0.0,0.0,0.0,-0.20267410283500048,0.003925619971049028,9.797903234751193,0.0,0.0,0.0,0.0,0.0,0.0,0.0,0.0,0.0
1702023193858680734,218,1702023193858424663,base_link,0.01199934789534015,0.0006150219848402158,-0.9751311036348442,0.22130288773971218,0.0,0.0,0.0,0.0,0.0,0.0,0.0,0.0,0.0,-0.0002254769206047058,0.0013188589364290237,-0.00164736807346344,0.0,0.0,0.0,0.0,0.0,0.0,0.0,0.0,0.0,-0.20267410283500048,0.003925619971049028,9.797903234751193,0.0,0.0,0.0,0.0,0.0,0.0,0.0,0.0,0.0
1702023193862101619,219,1702023193861859083,base_link,0.01199934789534015,0.0006150219848402158,-0.9751311036348442,0.22130288773971218,0.0,0.0,0.0,0.0,0.0,0.0,0.0,0.0,0.0,-0.00022550858557224274,0.0013188105076551437,0.0015484392642974854,0.0,0.0,0.0,0.0,0.0,0.0,0.0,0.0,0.0,-0.17661317566426135,-0.019508801809851106,9.798389010078838,0.0,0.0,0.0,0.0,0.0,0.0,0.0,0.0,0.0
1702023193865330993,220,1702023193865073919,base_link,0.011999993162544596,0.0006145752960450284,-0.9751307740004084,0.2213043064620948,0.0,0.0,0.0,0.0,0.0,0.0,0.0,0.0,0.0,-0.00022550858557224274,0.0013188105076551437,0.0015484392642974854,0.0,0.0,0.0,0.0,0.0,0.0,0.0,0.0,0.0,-0.17661317566426135,-0.019508801809851106,9.798389010078838,0.0,0.0,0.0,0.0,0.0,0.0,0.0,0.0,0.0
1702023193868780706,221,1702023193868541002,base_link,0.011999993162544596,0.0006145752960450284,-0.9751307740004084,0.2213043064620948,0.0,0.0,0.0,0.0,0.0,0.0,0.0,0.0,0.0,-0.00022558681666851044,-0.0018769539892673492,-0.0027126148343086243,0.0,0.0,0.0,0.0,0.0,0.0,0.0,0.0,0.0,-0.2641449240270114,-0.028765133460618143,9.796397298303482,0.0,0.0,0.0,0.0,0.0,0.0,0.0,0.0,0.0
1702023193872102761,222,1702023193871762990,base_link,0.011999443327543439,0.0006147887354752131,-0.9751320167117452,0.22129885986675246,0.0,0.0,0.0,0.0,0.0,0.0,0.0,0.0,0.0,-0.00022558681666851044,-0.0018769539892673492,-0.0027126148343086243,0.0,0.0,0.0,0.0,0.0,0.0,0.0,0.0,0.0,-0.2641449240270114,-0.028765133460618143,9.796397298303482,0.0,0.0,0.0,0.0,0.0,0.0,0.0,0.0,0.0
1702023193875582664,223,1702023193875248193,base_link,0.011999443327543439,0.0006147887354752131,-0.9751320167117452,0.22129885986675246,0.0,0.0,0.0,0.0,0.0,0.0,0.0,0.0,0.0,-0.0023561567068099976,0.0023840442299842834,0.0015484541654586792,0.0,0.0,0.0,0.0,0.0,0.0,0.0,0.0,0.0,-0.19392623430784853,0.04867738540132537,9.797960151368125,0.0,0.0,0.0,0.0,0.0,0.0,0.0,0.0,0.0
1702023193878702918,224,1702023193878424406,base_link,0.011998431684973821,0.0006246507683518323,-0.9751312312833487,0.22130234798650256,0.0,0.0,0.0,0.0,0.0,0.0,0.0,0.0,0.0,-0.0023561567068099976,0.0023840442299842834,0.0015484541654586792,0.0,0.0,0.0,0.0,0.0,0.0,0.0,0.0,0.0,-0.19392623430784853,0.04867738540132537,9.797960151368125,0.0,0.0,0.0,0.0,0.0,0.0,0.0,0.0,0.0
1702023193882104047,225,1702023193881852149,base_link,0.011998431684973821,0.0006246507683518323,-0.9751312312833487,0.22130234798650256,0.0,0.0,0.0,0.0,0.0,0.0,0.0,0.0,0.0,-0.00022570788860321045,-0.0018769968301057816,-0.0005820561200380325,0.0,0.0,0.0,0.0,0.0,0.0,0.0,0.0,0.0,-0.2409377276990811,0.059905625405807385,9.79685461397769,0.0,0.0,0.0,0.0,0.0,0.0,0.0,0.0,0.0
1702023193885319139,226,1702023193885069131,base_link,0.0119875514897319,0.0006192092537337939,-0.9751310105055567,0.22130392572115115,0.0,0.0,0.0,0.0,0.0,0.0,0.0,0.0,0.0,-0.00022570788860321045,-0.0018769968301057816,-0.0005820561200380325,0.0,0.0,0.0,0.0,0.0,0.0,0.0,0.0,0.0,-0.2409377276990811,0.059905625405807385,9.79685461397769,0.0,0.0,0.0,0.0,0.0,0.0,0.0,0.0,0.0
1702023193889181777,227,1702023193888808488,base_link,0.0119875514897319,0.0006192092537337939,-0.9751310105055567,0.22130392572115115,0.0,0.0,0.0,0.0,0.0,0.0,0.0,0.0,0.0,-0.0002257470041513443,0.0002535618841648102,0.0015484821051359177,0.0,0.0,0.0,0.0,0.0,0.0,0.0,0.0,0.0,-0.216514862398596,0.038689310475856394,9.797531548896153,0.0,0.0,0.0,0.0,0.0,0.0,0.0,0.0,0.0
1702023193892333861,228,1702023193891946792,base_link,0.011985849168210617,0.0006213383401968116,-0.9751302266124439,0.22130746599504453,0.0,0.0,0.0,0.0,0.0,0.0,0.0,0.0,0.0,-0.0002257470041513443,0.0002535618841648102,0.0015484821051359177,0.0,0.0,0.0,0.0,0.0,0.0,0.0,0.0,0.0,-0.216514862398596,0.038689310475856394,9.797531548896153,0.0,0.0,0.0,0.0,0.0,0.0,0.0,0.0,0.0
1702023193895578581,229,1702023193895273685,base_link,0.011985849168210617,0.0006213383401968116,-0.9751302266124439,0.22130746599504453,0.0,0.0,0.0,0.0,0.0,0.0,0.0,0.0,0.0,-0.00022582896053791046,-0.0008117053657770157,-0.0016472917050123215,0.0,0.0,0.0,0.0,0.0,0.0,0.0,0.0,0.0,-0.23674468080152825,0.008585495095236997,9.797136226744332,0.0,0.0,0.0,0.0,0.0,0.0,0.0,0.0,0.0
1702023193898655380,230,1702023193898425102,base_link,0.011976743193985484,0.0006259549618454251,-0.9751303685266803,0.22130732066488834,0.0,0.0,0.0,0.0,0.0,0.0,0.0,0.0,0.0,-0.00022582896053791046,-0.0008117053657770157,-0.0016472917050123215,0.0,0.0,0.0,0.0,0.0,0.0,0.0,0.0,0.0,-0.23674468080152825,0.008585495095236997,9.797136226744332,0.0,0.0,0.0,0.0,0.0,0.0,0.0,0.0,0.0
1702023193902087323,231,1702023193901853799,base_link,0.011976743193985484,0.0006259549618454251,-0.9751303685266803,0.22130732066488834,0.0,0.0,0.0,0.0,0.0,0.0,0.0,0.0,0.0,-0.00022589042782783508,-0.0008116811513900757,0.0004832558333873749,0.0,0.0,0.0,0.0,0.0,0.0,0.0,0.0,0.0,-0.265574548154917,0.04380506382312129,9.796302939158005,0.0,0.0,0.0,0.0,0.0,0.0,0.0,0.0,0.0
1702023193905607076,232,1702023193905307292,base_link,0.01197492508450967,0.0006219514977892915,-0.9751304296192356,0.22130716114974705,0.0,0.0,0.0,0.0,0.0,0.0,0.0,0.0,0.0,-0.00022589042782783508,-0.0008116811513900757,0.0004832558333873749,0.0,0.0,0.0,0.0,0.0,0.0,0.0,0.0,0.0,-0.265574548154917,0.04380506382312129,9.796302939158005,0.0,0.0,0.0,0.0,0.0,0.0,0.0,0.0,0.0
1702023193909118616,233,1702023193908696889,base_link,0.01197492508450967,0.0006219514977892915,-0.9751304296192356,0.22130716114974705,0.0,0.0,0.0,0.0,0.0,0.0,0.0,0.0,0.0,0.0008393358439207077,0.00025357678532600403,0.0015485230833292007,0.0,0.0,0.0,0.0,0.0,0.0,0.0,0.0,0.0,-0.22180153265249636,0.050444227630010025,9.797359820891128,0.0,0.0,0.0,0.0,0.0,0.0,0.0,0.0,0.0
1702023193912179176,234,1702023193911841392,base_link,0.011978068036276776,0.0006176008112978733,-0.9751296433158262,0.2213104678547894,0.0,0.0,0.0,0.0,0.0,0.0,0.0,0.0,0.0,0.0008393358439207077,0.00025357678532600403,0.0015485230833292007,0.0,0.0,0.0,0.0,0.0,0.0,0.0,0.0,0.0,-0.22180153265249636,0.050444227630010025,9.797359820891128,0.0,0.0,0.0,0.0,0.0,0.0,0.0,0.0,0.0
1702023193915521275,235,1702023193915231943,base_link,0.011978068036276776,0.0006176008112978733,-0.9751296433158262,0.2213104678547894,0.0,0.0,0.0,0.0,0.0,0.0,0.0,0.0,0.0,0.0008393004536628723,0.0013187844306230545,0.0015485361218452454,0.0,0.0,0.0,0.0,0.0,0.0,0.0,0.0,0.0,-0.23225511476149693,0.05070384077220625,9.797116243170644,0.0,0.0,0.0,0.0,0.0,0.0,0.0,0.0,0.0
1702023193918730133,236,1702023193918452978,base_link,0.01197628468770453,0.0006208473011639344,-0.975128090725944,0.22131739613252924,0.0,0.0,0.0,0.0,0.0,0.0,0.0,0.0,0.0,0.0008393004536628723,0.0013187844306230545,0.0015485361218452454,0.0,0.0,0.0,0.0,0.0,0.0,0.0,0.0,0.0,-0.23225511476149693,0.05070384077220625,9.797116243170644,0.0,0.0,0.0,0.0,0.0,0.0,0.0,0.0,0.0
1702023193922228420,237,1702023193921923160,base_link,0.01197628468770453,0.0006208473011639344,-0.975128090725944,0.22131739613252924,0.0,0.0,0.0,0.0,0.0,0.0,0.0,0.0,0.0,0.0008392482995986938,0.0013187453150749207,0.00048329681158065796,0.0,0.0,0.0,0.0,0.0,0.0,0.0,0.0,0.0,-0.1905897061892707,0.07185006367863334,9.797883094436475,0.0,0.0,0.0,0.0,0.0,0.0,0.0,0.0,0.0
1702023193925545828,238,1702023193925182580,base_link,0.011978466578005621,0.0006204195050385033,-0.9751281277059342,0.2213171163168291,0.0,0.0,0.0,0.0,0.0,0.0,0.0,0.0,0.0,0.0008392482995986938,0.0013187453150749207,0.00048329681158065796,0.0,0.0,0.0,0.0,0.0,0.0,0.0,0.0,0.0,-0.1905897061892707,0.07185006367863334,9.797883094436475,0.0,0.0,0.0,0.0,0.0,0.0,0.0,0.0,0.0
1702023193928839227,239,1702023193928542613,base_link,0.011978466578005621,0.0006204195050385033,-0.9751281277059342,0.2213171163168291,0.0,0.0,0.0,0.0,0.0,0.0,0.0,0.0,0.0,-0.0012913383543491364,-0.0008118152618408203,0.0015485789626836777,0.0,0.0,0.0,0.0,0.0,0.0,0.0,0.0,0.0,-0.25265970520737735,0.05059419241455708,9.796611827619714,0.0,0.0,0.0,0.0,0.0,0.0,0.0,0.0,0.0
1702023193932032390,240,1702023193931745052,base_link,0.011979726492061306,0.0006220436700062251,-0.9751281387739323,0.22131699479736006,0.0,0.0,0.0,0.0,0.0,0.0,0.0,0.0,0.0,-0.0012913383543491364,-0.0008118152618408203,0.0015485789626836777,0.0,0.0,0.0,0.0,0.0,0.0,0.0,0.0,0.0,-0.25265970520737735,0.05059419241455708,9.796611827619714,0.0,0.0,0.0,0.0,0.0,0.0,0.0,0.0,0.0
1702023193935429444,241,1702023193935179710,base_link,0.011979726492061306,0.0006220436700062251,-0.9751281387739323,0.22131699479736006,0.0,0.0,0.0,0.0,0.0,0.0,0.0,0.0,0.0,-0.00022614933550357819,-0.0008117835968732834,-0.0005819443613290787,0.0,0.0,0.0,0.0,0.0,0.0,0.0,0.0,0.0,-0.19067869135534027,0.057123366877571295,9.7979782893013,0.0,0.0,0.0,0.0,0.0,0.0,0.0,0.0,0.0
1702023193938707478,242,1702023193938420295,base_link,0.011978653444478304,0.0006260655952949712,-0.9751273717826215,0.22132042089207274,0.0,0.0,0.0,0.0,0.0,0.0,0.0,0.0,0.0,-0.00022614933550357819,-0.0008117835968732834,-0.0005819443613290787,0.0,0.0,0.0,0.0,0.0,0.0,0.0,0.0,0.0,-0.19067869135534027,0.057123366877571295,9.7979782893013,0.0,0.0,0.0,0.0,0.0,0.0,0.0,0.0,0.0
1702023193942331731,243,1702023193941951036,base_link,0.011978653444478304,0.0006260655952949712,-0.9751273717826215,0.22132042089207274,0.0,0.0,0.0,0.0,0.0,0.0,0.0,0.0,0.0,0.0008390657603740692,0.00025343336164951324,-0.0016471929848194122,0.0,0.0,0.0,0.0,0.0,0.0,0.0,0.0,0.0,-0.20390260852615505,0.027252475953001613,9.797840630914074,0.0,0.0,0.0,0.0,0.0,0.0,0.0,0.0,0.0
1702023193945388422,244,1702023193945107698,base_link,0.011974786696238462,0.0006292526011426013,-0.9751278452407488,0.2213185350594873,0.0,0.0,0.0,0.0,0.0,0.0,0.0,0.0,0.0,0.0008390657603740692,0.00025343336164951324,-0.0016471929848194122,0.0,0.0,0.0,0.0,0.0,0.0,0.0,0.0,0.0,-0.20390260852615505,0.027252475953001613,9.797840630914074,0.0,0.0,0.0,0.0,0.0,0.0,0.0,0.0,0.0
1702023193948821506,245,1702023193948540449,base_link,0.011974786696238462,0.0006292526011426013,-0.9751278452407488,0.2213185350594873,0.0,0.0,0.0,0.0,0.0,0.0,0.0,0.0,0.0,0.0019042761996388435,0.0013186708092689514,-0.0005819201469421387,0.0,0.0,0.0,0.0,0.0,0.0,0.0,0.0,0.0,-0.22263411962153865,0.05063358252799421,9.797339959861594,0.0,0.0,0.0,0.0,0.0,0.0,0.0,0.0,0.0
1702023193952028893,246,1702023193951746702,base_link,0.01197835595025626,0.0006291344524120509,-0.9751278075498725,0.22131850831222538,0.0,0.0,0.0,0.0,0.0,0.0,0.0,0.0,0.0,0.0019042761996388435,0.0013186708092689514,-0.0005819201469421387,0.0,0.0,0.0,0.0,0.0,0.0,0.0,0.0,0.0,-0.22263411962153865,0.05063358252799421,9.797339959861594,0.0,0.0,0.0,0.0,0.0,0.0,0.0,0.0,0.0
1702023193955465101,247,1702023193955191373,base_link,0.01197835595025626,0.0006291344524120509,-0.9751278075498725,0.22131850831222538,0.0,0.0,0.0,0.0,0.0,0.0,0.0,0.0,0.0,0.0008389540016651154,-0.0018771253526210785,0.0015486273914575577,0.0,0.0,0.0,0.0,0.0,0.0,0.0,0.0,0.0,-0.26784675887272746,0.006267669355073219,9.796337010846567,0.0,0.0,0.0,0.0,0.0,0.0,0.0,0.0,0.0
1702023193958788582,248,1702023193958474636,base_link,0.01197592818287561,0.000635140143393261,-0.975127490877861,0.22132001779189367,0.0,0.0,0.0,0.0,0.0,0.0,0.0,0.0,0.0,0.0008389540016651154,-0.0018771253526210785,0.0015486273914575577,0.0,0.0,0.0,0.0,0.0,0.0,0.0,0.0,0.0,-0.26784675887272746,0.006267669355073219,9.796337010846567,0.0,0.0,0.0,0.0,0.0,0.0,0.0,0.0,0.0
1702023193962147816,249,1702023193961854696,base_link,0.01197592818287561,0.000635140143393261,-0.975127490877861,0.22132001779189367,0.0,0.0,0.0,0.0,0.0,0.0,0.0,0.0,0.0,-0.0023569148033857346,0.002383897081017494,0.0015486571937799454,0.0,0.0,0.0,0.0,0.0,0.0,0.0,0.0,0.0,-0.29638720649645733,-0.0007700731680851657,9.7955170374418,0.0,0.0,0.0,0.0,0.0,0.0,0.0,0.0,0.0
1702023193965337262,250,1702023193965073108,base_link,0.01197922712566854,0.0006393817346233375,-0.975125939844276,0.22132666073314927,0.0,0.0,0.0,0.0,0.0,0.0,0.0,0.0,0.0,-0.0023569148033857346,0.002383897081017494,0.0015486571937799454,0.0,0.0,0.0,0.0,0.0,0.0,0.0,0.0,0.0,-0.29638720649645733,-0.0007700731680851657,9.7955170374418,0.0,0.0,0.0,0.0,0.0,0.0,0.0,0.0,0.0
1702023193968822142,251,1702023193968508005,base_link,0.01197922712566854,0.0006393817346233375,-0.975125939844276,0.22132666073314927,0.0,0.0,0.0,0.0,0.0,0.0,0.0,0.0,0.0,-0.0012916885316371918,-0.00187717005610466,0.0004834067076444626,0.0,0.0,0.0,0.0,0.0,0.0,0.0,0.0,0.0,-0.19693467720613966,0.04126170389562557,9.797934180464031,0.0,0.0,0.0,0.0,0.0,0.0,0.0,0.0,0.0
1702023193972322839,252,1702023193971981763,base_link,0.01197268015144242,0.000645784632968683,-0.9751252237813771,0.22133015121649902,0.0,0.0,0.0,0.0,0.0,0.0,0.0,0.0,0.0,-0.0012916885316371918,-0.00187717005610466,0.0004834067076444626,0.0,0.0,0.0,0.0,0.0,0.0,0.0,0.0,0.0,-0.19693467720613966,0.04126170389562557,9.797934180464031,0.0,0.0,0.0,0.0,0.0,0.0,0.0,0.0,0.0
1702023193975713487,253,1702023193975422143,base_link,0.01197268015144242,0.000645784632968683,-0.9751252237813771,0.22133015121649902,0.0,0.0,0.0,0.0,0.0,0.0,0.0,0.0,0.0,0.0008387751877307892,0.002383861690759659,-0.0016471073031425476,0.0,0.0,0.0,0.0,0.0,0.0,0.0,0.0,0.0,-0.2278173552310014,0.03435975248483377,9.797291394057073,0.0,0.0,0.0,0.0,0.0,0.0,0.0,0.0,0.0
1702023193979051904,254,1702023193978653192,base_link,0.01197666363184273,0.000649626804619375,-0.9751259650802241,0.22132665844770288,0.0,0.0,0.0,0.0,0.0,0.0,0.0,0.0,0.0,0.0008387751877307892,0.002383861690759659,-0.0016471073031425476,0.0,0.0,0.0,0.0,0.0,0.0,0.0,0.0,0.0,-0.2278173552310014,0.03435975248483377,9.797291394057073,0.0,0.0,0.0,0.0,0.0,0.0,0.0,0.0,0.0
1702023193982149430,255,1702023193981891632,base_link,0.01197666363184273,0.000649626804619375,-0.9751259650802241,0.22132665844770288,0.0,0.0,0.0,0.0,0.0,0.0,0.0,0.0,0.0,-0.0012918207794427872,0.00025331974029541016,0.0004834383726119995,0.0,0.0,0.0,0.0,0.0,0.0,0.0,0.0,0.0,-0.2572154479197631,-0.0031267558420810587,9.796623420176433,0.0,0.0,0.0,0.0,0.0,0.0,0.0,0.0,0.0
1702023193985393195,256,1702023193985081672,base_link,0.011973195010167971,0.0006581735924797846,-0.9751256515095553,0.22132820239823914,0.0,0.0,0.0,0.0,0.0,0.0,0.0,0.0,0.0,-0.0012918207794427872,0.00025331974029541016,0.0004834383726119995,0.0,0.0,0.0,0.0,0.0,0.0,0.0,0.0,0.0,-0.2572154479197631,-0.0031267558420810587,9.796623420176433,0.0,0.0,0.0,0.0,0.0,0.0,0.0,0.0,0.0
1702023193989450529,257,1702023193988669395,base_link,0.011973195010167971,0.0006581735924797846,-0.9751256515095553,0.22132820239823914,0.0,0.0,0.0,0.0,0.0,0.0,0.0,0.0,0.0,-0.001291884109377861,0.0002533178776502609,0.0015487242490053177,0.0,0.0,0.0,0.0,0.0,0.0,0.0,0.0,0.0,-0.21389149583871944,0.05076567463417934,9.797534040476043,0.0,0.0,0.0,0.0,0.0,0.0,0.0,0.0,0.0
1702023193989466477,258,1702023193989026069,base_link,0.011972028986412895,0.0006596815721767496,-0.9751256887423996,0.22132809694395528,0.0,0.0,0.0,0.0,0.0,0.0,0.0,0.0,0.0,-0.001291884109377861,0.0002533178776502609,0.0015487242490053177,0.0,0.0,0.0,0.0,0.0,0.0,0.0,0.0,0.0,-0.21389149583871944,0.05076567463417934,9.797534040476043,0.0,0.0,0.0,0.0,0.0,0.0,0.0,0.0,0.0
1702023193996149784,259,1702023193995373249,base_link,0.011972028986412895,0.0006596815721767496,-0.9751256887423996,0.22132809694395528,0.0,0.0,0.0,0.0,0.0,0.0,0.0,0.0,0.0,-0.001291932538151741,-0.0008119735866785049,0.0036792680621147156,0.0,0.0,0.0,0.0,0.0,0.0,0.0,0.0,0.0,-0.21166203061006023,0.043759359890673505,9.797616256172722,0.0,0.0,0.0,0.0,0.0,0.0,0.0,0.0,0.0
1702023193996172120,260,1702023193995723247,base_link,0.011966378416692854,0.0006603070443785791,-0.9751246272632917,0.2213330772542193,0.0,0.0,0.0,0.0,0.0,0.0,0.0,0.0,0.0,-0.001291932538151741,-0.0008119735866785049,0.0036792680621147156,0.0,0.0,0.0,0.0,0.0,0.0,0.0,0.0,0.0,-0.21166203061006023,0.043759359890673505,9.797616256172722,0.0,0.0,0.0,0.0,0.0,0.0,0.0,0.0,0.0
1702023194002294376,261,1702023194001938343,base_link,0.011966378416692854,0.0006603070443785791,-0.9751246272632917,0.2213330772542193,0.0,0.0,0.0,0.0,0.0,0.0,0.0,0.0,0.0,-0.002357281744480133,-0.0008119549602270126,-0.0016470402479171753,0.0,0.0,0.0,0.0,0.0,0.0,0.0,0.0,0.0,-0.23701577304759217,0.07647289626743903,9.796834969492092,0.0,0.0,0.0,0.0,0.0,0.0,0.0,0.0,0.0
1702023194005436238,262,1702023194005141258,base_link,0.011968872675651495,0.0006652497170162451,-0.9751253809932183,0.2213296068593602,0.0,0.0,0.0,0.0,0.0,0.0,0.0,0.0,0.0,-0.002357281744480133,-0.0008119549602270126,-0.0016470402479171753,0.0,0.0,0.0,0.0,0.0,0.0,0.0,0.0,0.0,-0.23701577304759217,0.07647289626743903,9.796834969492092,0.0,0.0,0.0,0.0,0.0,0.0,0.0,0.0,0.0
1702023194009206405,263,1702023194008592367,base_link,0.011968872675651495,0.0006652497170162451,-0.9751253809932183,0.2213296068593602,0.0,0.0,0.0,0.0,0.0,0.0,0.0,0.0,0.0,-0.0002268124371767044,-0.0008119922131299973,0.0004835035651922226,0.0,0.0,0.0,0.0,0.0,0.0,0.0,0.0,0.0,-0.20090679593879013,0.027478247942304395,9.797901887916394,0.0,0.0,0.0,0.0,0.0,0.0,0.0,0.0,0.0
1702023194009223998,264,1702023194008872747,base_link,0.011966630283529107,0.0006657675903216009,-0.975124254033821,0.22133469160562588,0.0,0.0,0.0,0.0,0.0,0.0,0.0,0.0,0.0,-0.0002268124371767044,-0.0008119922131299973,0.0004835035651922226,0.0,0.0,0.0,0.0,0.0,0.0,0.0,0.0,0.0,-0.20090679593879013,0.027478247942304395,9.797901887916394,0.0,0.0,0.0,0.0,0.0,0.0,0.0,0.0,0.0
1702023194015696615,265,1702023194015165328,base_link,0.011966630283529107,0.0006657675903216009,-0.975124254033821,0.22133469160562588,0.0,0.0,0.0,0.0,0.0,0.0,0.0,0.0,0.0,0.0008384101092815399,-0.001877281814813614,0.0004835203289985657,0.0,0.0,0.0,0.0,0.0,0.0,0.0,0.0,0.0,-0.20816959859727752,0.08878644355285031,9.797386507924505,0.0,0.0,0.0,0.0,0.0,0.0,0.0,0.0,0.0
1702023194015730107,266,1702023194015413522,base_link,0.011963694994486075,0.0006626183495095856,-0.9751239414588031,0.2213362368272551,0.0,0.0,0.0,0.0,0.0,0.0,0.0,0.0,0.0,0.0008384101092815399,-0.001877281814813614,0.0004835203289985657,0.0,0.0,0.0,0.0,0.0,0.0,0.0,0.0,0.0,-0.20816959859727752,0.08878644355285031,9.797386507924505,0.0,0.0,0.0,0.0,0.0,0.0,0.0,0.0,0.0
1702023194022435865,267,1702023194021864891,base_link,0.011963694994486075,0.0006626183495095856,-0.9751239414588031,0.2213362368272551,0.0,0.0,0.0,0.0,0.0,0.0,0.0,0.0,0.0,0.0008383635431528091,0.0013184845447540283,-0.0005817394703626633,0.0,0.0,0.0,0.0,0.0,0.0,0.0,0.0,0.0,-0.24036552698989683,0.04154020346469516,9.796963755415806,0.0,0.0,0.0,0.0,0.0,0.0,0.0,0.0,0.0
1702023194022463780,268,1702023194022143840,base_link,0.011966941930885006,0.000662138005733259,-0.9751250870759959,0.22133101551548423,0.0,0.0,0.0,0.0,0.0,0.0,0.0,0.0,0.0,0.0008383635431528091,0.0013184845447540283,-0.0005817394703626633,0.0,0.0,0.0,0.0,0.0,0.0,0.0,0.0,0.0,-0.24036552698989683,0.04154020346469516,9.796963755415806,0.0,0.0,0.0,0.0,0.0,0.0,0.0,0.0,0.0
1702023194025787047,269,1702023194025372743,base_link,0.011966941930885006,0.000662138005733259,-0.9751250870759959,0.22133101551548423,0.0,0.0,0.0,0.0,0.0,0.0,0.0,0.0,0.0,-0.00022696703672409058,0.001318458467721939,0.0026140715926885605,0.0,0.0,0.0,0.0,0.0,0.0,0.0,0.0,0.0,-0.24077295360448137,0.0015676425433538046,9.797041692639132,0.0,0.0,0.0,0.0,0.0,0.0,0.0,0.0,0.0
1702023194028701083,270,1702023194028446197,base_link,0.011966715891564,0.0006662322961829127,-0.9751235444305285,0.22133781182288148,0.0,0.0,0.0,0.0,0.0,0.0,0.0,0.0,0.0,-0.00022696703672409058,0.001318458467721939,0.0026140715926885605,0.0,0.0,0.0,0.0,0.0,0.0,0.0,0.0,0.0,-0.24077295360448137,0.0015676425433538046,9.797041692639132,0.0,0.0,0.0,0.0,0.0,0.0,0.0,0.0,0.0
1702023194035685645,271,1702023194035158634,base_link,0.011966715891564,0.0006662322961829127,-0.9751235444305285,0.22133781182288148,0.0,0.0,0.0,0.0,0.0,0.0,0.0,0.0,0.0,-0.0012922845780849457,0.0034489184617996216,0.0004835687577724457,0.0,0.0,0.0,0.0,0.0,0.0,0.0,0.0,0.0,-0.22389453706693457,0.05326979410593965,9.79729725818848,0.0,0.0,0.0,0.0,0.0,0.0,0.0,0.0,0.0
1702023194035733556,272,1702023194035398960,base_link,0.011968371208658428,0.0006613100466355869,-0.9751239546085341,0.22133592999837942,0.0,0.0,0.0,0.0,0.0,0.0,0.0,0.0,0.0,-0.0012922845780849457,0.0034489184617996216,0.0004835687577724457,0.0,0.0,0.0,0.0,0.0,0.0,0.0,0.0,0.0,-0.22389453706693457,0.05326979410593965,9.79729725818848,0.0,0.0,0.0,0.0,0.0,0.0,0.0,0.0,0.0
1702023194039091829,273,1702023194038696050,base_link,0.011968371208658428,0.0006613100466355869,-0.9751239546085341,0.22133592999837942,0.0,0.0,0.0,0.0,0.0,0.0,0.0,0.0,0.0,-0.0012923497706651688,0.001318393275141716,-0.0005816947668790817,0.0,0.0,0.0,0.0,0.0,0.0,0.0,0.0,0.0,-0.1914930021669121,0.05336170390385795,9.797983616983528,0.0,0.0,0.0,0.0,0.0,0.0,0.0,0.0,0.0
1702023194042277696,274,1702023194041895389,base_link,0.011969693720759783,0.0006636941448386006,-0.9751243751480467,0.22133399859588862,0.0,0.0,0.0,0.0,0.0,0.0,0.0,0.0,0.0,-0.0012923497706651688,0.001318393275141716,-0.0005816947668790817,0.0,0.0,0.0,0.0,0.0,0.0,0.0,0.0,0.0,-0.1914930021669121,0.05336170390385795,9.797983616983528,0.0,0.0,0.0,0.0,0.0,0.0,0.0,0.0,0.0
1702023194045518582,275,1702023194045228004,base_link,0.011969693720759783,0.0006636941448386006,-0.9751243751480467,0.22133399859588862,0.0,0.0,0.0,0.0,0.0,0.0,0.0,0.0,0.0,-0.00022712349891662598,0.0023836009204387665,0.0026141125708818436,0.0,0.0,0.0,0.0,0.0,0.0,0.0,0.0,0.0,-0.2499799230126792,0.08782105447916591,9.79641758503999,0.0,0.0,0.0,0.0,0.0,0.0,0.0,0.0,0.0
1702023194048660512,276,1702023194048415660,base_link,0.011973401392856872,0.0006673805580419221,-0.9751239410797513,0.22133569932428446,0.0,0.0,0.0,0.0,0.0,0.0,0.0,0.0,0.0,-0.00022712349891662598,0.0023836009204387665,0.0026141125708818436,0.0,0.0,0.0,0.0,0.0,0.0,0.0,0.0,0.0,-0.2499799230126792,0.08782105447916591,9.79641758503999,0.0,0.0,0.0,0.0,0.0,0.0,0.0,0.0,0.0
1702023194052122728,277,1702023194051872730,base_link,0.011973401392856872,0.0006673805580419221,-0.9751239410797513,0.22133569932428446,0.0,0.0,0.0,0.0,0.0,0.0,0.0,0.0,0.0,-0.00022719427943229675,-0.002942717634141445,0.002614133059978485,0.0,0.0,0.0,0.0,0.0,0.0,0.0,0.0,0.0,-0.18072131132643263,-0.005436356027943005,9.79833201385142,0.0,0.0,0.0,0.0,0.0,0.0,0.0,0.0,0.0
1702023194055624042,278,1702023194055222034,base_link,0.011967740087957833,0.0006680829443357226,-0.9751236456433527,0.22133730496593576,0.0,0.0,0.0,0.0,0.0,0.0,0.0,0.0,0.0,-0.00022719427943229675,-0.002942717634141445,0.002614133059978485,0.0,0.0,0.0,0.0,0.0,0.0,0.0,0.0,0.0,-0.18072131132643263,-0.005436356027943005,9.79833201385142,0.0,0.0,0.0,0.0,0.0,0.0,0.0,0.0,0.0
1702023194058953851,279,1702023194058592319,base_link,0.011967740087957833,0.0006680829443357226,-0.9751236456433527,0.22133730496593576,0.0,0.0,0.0,0.0,0.0,0.0,0.0,0.0,0.0,-0.00022727623581886292,-0.000812184065580368,-0.000581648200750351,0.0,0.0,0.0,0.0,0.0,0.0,0.0,0.0,0.0,-0.2504002200312788,0.0062400214321327845,9.79679849705713,0.0,0.0,0.0,0.0,0.0,0.0,0.0,0.0,0.0
1702023194062028510,280,1702023194061760187,base_link,0.011964141011254877,0.0006688278212665971,-0.9751240942573793,0.22133552086805627,0.0,0.0,0.0,0.0,0.0,0.0,0.0,0.0,0.0,-0.00022727623581886292,-0.000812184065580368,-0.000581648200750351,0.0,0.0,0.0,0.0,0.0,0.0,0.0,0.0,0.0,-0.2504002200312788,0.0062400214321327845,9.79679849705713,0.0,0.0,0.0,0.0,0.0,0.0,0.0,0.0,0.0
1702023194065405042,281,1702023194065167903,base_link,0.011964141011254877,0.0006688278212665971,-0.9751240942573793,0.22133552086805627,0.0,0.0,0.0,0.0,0.0,0.0,0.0,0.0,0.0,-0.00022733397781848907,0.002383582293987274,0.0004836302250623703,0.0,0.0,0.0,0.0,0.0,0.0,0.0,0.0,0.0,-0.2747723793809193,0.04888752227139059,9.796025221981388,0.0,0.0,0.0,0.0,0.0,0.0,0.0,0.0,0.0
1702023194068643124,282,1702023194068403005,base_link,0.011972217806586808,0.0006717631076502558,-0.9751240579588534,0.22133523516371695,0.0,0.0,0.0,0.0,0.0,0.0,0.0,0.0,0.0,-0.00022733397781848907,0.002383582293987274,0.0004836302250623703,0.0,0.0,0.0,0.0,0.0,0.0,0.0,0.0,0.0,-0.2747723793809193,0.04888752227139059,9.796025221981388,0.0,0.0,0.0,0.0,0.0,0.0,0.0,0.0,0.0
1702023194072348396,283,1702023194071999788,base_link,0.011972217806586808,0.0006717631076502558,-0.9751240579588534,0.22133523516371695,0.0,0.0,0.0,0.0,0.0,0.0,0.0,0.0,0.0,-0.0023579243570566177,-0.0018774829804897308,0.0015489105135202408,0.0,0.0,0.0,0.0,0.0,0.0,0.0,0.0,0.0,-0.24917328214325882,0.006209445905017896,9.796829799391615,0.0,0.0,0.0,0.0,0.0,0.0,0.0,0.0,0.0
1702023194075481212,284,1702023194075149059,base_link,0.011973706311957943,0.0006773738166974675,-0.9751232878951974,0.22133853014404767,0.0,0.0,0.0,0.0,0.0,0.0,0.0,0.0,0.0,-0.0023579243570566177,-0.0018774829804897308,0.0015489105135202408,0.0,0.0,0.0,0.0,0.0,0.0,0.0,0.0,0.0,-0.24917328214325882,0.006209445905017896,9.796829799391615,0.0,0.0,0.0,0.0,0.0,0.0,0.0,0.0,0.0
1702023194078809461,285,1702023194078536272,base_link,0.011973706311957943,0.0006773738166974675,-0.9751232878951974,0.22133853014404767,0.0,0.0,0.0,0.0,0.0,0.0,0.0,0.0,0.0,0.0008378308266401291,0.0013182610273361206,0.0004836544394493103,0.0,0.0,0.0,0.0,0.0,0.0,0.0,0.0,0.0,-0.1367036829359951,0.03897670220119161,9.798968972282607,0.0,0.0,0.0,0.0,0.0,0.0,0.0,0.0,0.0
1702023194082013704,286,1702023194081747770,base_link,0.011970408990653136,0.000675552835288991,-0.9751229456398605,0.22134022188388008,0.0,0.0,0.0,0.0,0.0,0.0,0.0,0.0,0.0,0.0008378308266401291,0.0013182610273361206,0.0004836544394493103,0.0,0.0,0.0,0.0,0.0,0.0,0.0,0.0,0.0,-0.1367036829359951,0.03897670220119161,9.798968972282607,0.0,0.0,0.0,0.0,0.0,0.0,0.0,0.0,0.0
1702023194085434819,287,1702023194085177898,base_link,0.011970408990653136,0.000675552835288991,-0.9751229456398605,0.22134022188388008,0.0,0.0,0.0,0.0,0.0,0.0,0.0,0.0,0.0,-0.00022748485207557678,0.00025298818945884705,0.00048366375267505646,0.0,0.0,0.0,0.0,0.0,0.0,0.0,0.0,0.0,-0.27606777616216643,0.03661074635444196,9.796042376195413,0.0,0.0,0.0,0.0,0.0,0.0,0.0,0.0,0.0
1702023194089083970,288,1702023194088580131,base_link,0.011978625217937862,0.0006722875338723523,-0.975122897620521,0.22133999887846542,0.0,0.0,0.0,0.0,0.0,0.0,0.0,0.0,0.0,-0.00022748485207557678,0.00025298818945884705,0.00048366375267505646,0.0,0.0,0.0,0.0,0.0,0.0,0.0,0.0,0.0,-0.27606777616216643,0.03661074635444196,9.796042376195413,0.0,0.0,0.0,0.0,0.0,0.0,0.0,0.0,0.0
1702023194092438661,289,1702023194091979026,base_link,0.011978625217937862,0.0006722875338723523,-0.975122897620521,0.22133999887846542,0.0,0.0,0.0,0.0,0.0,0.0,0.0,0.0,0.0,0.0019030170515179634,-0.0008123088628053665,0.0015489254146814346,0.0,0.0,0.0,0.0,0.0,0.0,0.0,0.0,0.0,-0.22671440671310697,0.036901330910833224,9.797307735779547,0.0,0.0,0.0,0.0,0.0,0.0,0.0,0.0,0.0
1702023194095446545,290,1702023194095139741,base_link,0.01197221033236095,0.0006712110378930903,-0.975122615774818,0.22134159089510735,0.0,0.0,0.0,0.0,0.0,0.0,0.0,0.0,0.0,0.0019030170515179634,-0.0008123088628053665,0.0015489254146814346,0.0,0.0,0.0,0.0,0.0,0.0,0.0,0.0,0.0,-0.22671440671310697,0.036901330910833224,9.797307735779547,0.0,0.0,0.0,0.0,0.0,0.0,0.0,0.0,0.0
1702023194098834312,291,1702023194098551273,base_link,0.01197221033236095,0.0006712110378930903,-0.975122615774818,0.22134159089510735,0.0,0.0,0.0,0.0,0.0,0.0,0.0,0.0,0.0,0.0008376836776733398,0.0013182219117879868,-0.0016468614339828491,0.0,0.0,0.0,0.0,0.0,0.0,0.0,0.0,0.0,-0.20272185820590605,-0.007813652080027754,9.797899917586765,0.0,0.0,0.0,0.0,0.0,0.0,0.0,0.0,0.0
1702023194102039807,292,1702023194101784944,base_link,0.011973141015415575,0.0006699735480121859,-0.9751230517344743,0.22133962366850568,0.0,0.0,0.0,0.0,0.0,0.0,0.0,0.0,0.0,0.0008376836776733398,0.0013182219117879868,-0.0016468614339828491,0.0,0.0,0.0,0.0,0.0,0.0,0.0,0.0,0.0,-0.20272185820590605,-0.007813652080027754,9.797899917586765,0.0,0.0,0.0,0.0,0.0,0.0,0.0,0.0,0.0
1702023194105464138,293,1702023194105210065,base_link,0.011973141015415575,0.0006699735480121859,-0.9751230517344743,0.22133962366850568,0.0,0.0,0.0,0.0,0.0,0.0,0.0,0.0,0.0,-0.0012929067015647888,-0.0008123181760311127,-0.0005815848708152771,0.0,0.0,0.0,0.0,0.0,0.0,0.0,0.0,0.0,-0.2466814040427573,0.010951445764911957,9.796888707683435,0.0,0.0,0.0,0.0,0.0,0.0,0.0,0.0,0.0
1702023194108686034,294,1702023194108417749,base_link,0.011969690047431735,0.0006764893666855718,-0.9751226851670031,0.22134140542383626,0.0,0.0,0.0,0.0,0.0,0.0,0.0,0.0,0.0,-0.0012929067015647888,-0.0008123181760311127,-0.0005815848708152771,0.0,0.0,0.0,0.0,0.0,0.0,0.0,0.0,0.0,-0.2466814040427573,0.010951445764911957,9.796888707683435,0.0,0.0,0.0,0.0,0.0,0.0,0.0,0.0,0.0
1702023194112053306,295,1702023194111839294,base_link,0.011969690047431735,0.0006764893666855718,-0.9751226851670031,0.22134140542383626,0.0,0.0,0.0,0.0,0.0,0.0,0.0,0.0,0.0,0.0008375421166419983,-0.002942812629044056,-0.0027121007442474365,0.0,0.0,0.0,0.0,0.0,0.0,0.0,0.0,0.0,-0.21541333271063653,0.0039025010871337243,9.797631441658528,0.0,0.0,0.0,0.0,0.0,0.0,0.0,0.0,0.0
1702023194115301197,296,1702023194115055561,base_link,0.011961449843618018,0.0006787059893021798,-0.9751236207172075,0.22133772248575803,0.0,0.0,0.0,0.0,0.0,0.0,0.0,0.0,0.0,0.0008375421166419983,-0.002942812629044056,-0.0027121007442474365,0.0,0.0,0.0,0.0,0.0,0.0,0.0,0.0,0.0,-0.21541333271063653,0.0039025010871337243,9.797631441658528,0.0,0.0,0.0,0.0,0.0,0.0,0.0,0.0,0.0
1702023194118780515,297,1702023194118490934,base_link,0.011961449843618018,0.0006787059893021798,-0.9751236207172075,0.22133772248575803,0.0,0.0,0.0,0.0,0.0,0.0,0.0,0.0,0.0,-0.0002277679741382599,-0.0008122958242893219,0.002614237368106842,0.0,0.0,0.0,0.0,0.0,0.0,0.0,0.0,0.0,-0.19469089053553915,0.09157256542303066,9.797637976696441,0.0,0.0,0.0,0.0,0.0,0.0,0.0,0.0,0.0
1702023194122078131,298,1702023194121774196,base_link,0.011959549222937592,0.0006745948430479157,-0.9751229170401366,0.22134093784773917,0.0,0.0,0.0,0.0,0.0,0.0,0.0,0.0,0.0,-0.0002277679741382599,-0.0008122958242893219,0.002614237368106842,0.0,0.0,0.0,0.0,0.0,0.0,0.0,0.0,0.0,-0.19469089053553915,0.09157256542303066,9.797637976696441,0.0,0.0,0.0,0.0,0.0,0.0,0.0,0.0,0.0
1702023194125533594,299,1702023194125198602,base_link,0.011959549222937592,0.0006745948430479157,-0.9751229170401366,0.22134093784773917,0.0,0.0,0.0,0.0,0.0,0.0,0.0,0.0,0.0,-0.0012930706143379211,0.00025292299687862396,0.0026142504066228867,0.0,0.0,0.0,0.0,0.0,0.0,0.0,0.0,0.0,-0.20200651802013841,-0.02884386453621758,9.797875351225693,0.0,0.0,0.0,0.0,0.0,0.0,0.0,0.0,0.0
1702023194128646248,300,1702023194128403902,base_link,0.011961664152387027,0.0006785955312045551,-0.9751225284160546,0.22134252342080935,0.0,0.0,0.0,0.0,0.0,0.0,0.0,0.0,0.0,-0.0012930706143379211,0.00025292299687862396,0.0026142504066228867,0.0,0.0,0.0,0.0,0.0,0.0,0.0,0.0,0.0,-0.20200651802013841,-0.02884386453621758,9.797875351225693,0.0,0.0,0.0,0.0,0.0,0.0,0.0,0.0,0.0
1702023194132088097,301,1702023194131831407,base_link,0.011961664152387027,0.0006785955312045551,-0.9751225284160546,0.22134252342080935,0.0,0.0,0.0,0.0,0.0,0.0,0.0,0.0,0.0,-0.002358417958021164,-0.0008123293519020081,-0.0016467999666929245,0.0,0.0,0.0,0.0,0.0,0.0,0.0,0.0,0.0,-0.22171157532494126,0.07446787767768967,9.797208710268508,0.0,0.0,0.0,0.0,0.0,0.0,0.0,0.0,0.0
1702023194135329682,302,1702023194135058879,base_link,0.011957006109811126,0.0006785196016000316,-0.9751225782874093,0.2213425556239819,0.0,0.0,0.0,0.0,0.0,0.0,0.0,0.0,0.0,-0.002358417958021164,-0.0008123293519020081,-0.0016467999666929245,0.0,0.0,0.0,0.0,0.0,0.0,0.0,0.0,0.0,-0.22171157532494126,0.07446787767768967,9.797208710268508,0.0,0.0,0.0,0.0,0.0,0.0,0.0,0.0,0.0
1702023194138777899,303,1702023194138513326,base_link,0.011957006109811126,0.0006785196016000316,-0.9751225782874093,0.2213425556239819,0.0,0.0,0.0,0.0,0.0,0.0,0.0,0.0,0.0,0.000837322324514389,0.0013182014226913452,-0.0005815271288156509,0.0,0.0,0.0,0.0,0.0,0.0,0.0,0.0,0.0,-0.19878550345184443,0.08309112567590148,9.797631356019238,0.0,0.0,0.0,0.0,0.0,0.0,0.0,0.0,0.0
1702023194141994906,304,1702023194141735315,base_link,0.011956158118830915,0.0006761848293454131,-0.975123036629984,0.22134058934283365,0.0,0.0,0.0,0.0,0.0,0.0,0.0,0.0,0.0,0.000837322324514389,0.0013182014226913452,-0.0005815271288156509,0.0,0.0,0.0,0.0,0.0,0.0,0.0,0.0,0.0,-0.19878550345184443,0.08309112567590148,9.797631356019238,0.0,0.0,0.0,0.0,0.0,0.0,0.0,0.0,0.0
1702023194145428896,305,1702023194145174026,base_link,0.011956158118830915,0.0006761848293454131,-0.975123036629984,0.22134058934283365,0.0,0.0,0.0,0.0,0.0,0.0,0.0,0.0,0.0,0.0019025346264243126,-0.0018775798380374908,0.00048374198377132416,0.0,0.0,0.0,0.0,0.0,0.0,0.0,0.0,0.0,-0.18619233106085886,0.07195228263357821,9.797966895477755,0.0,0.0,0.0,0.0,0.0,0.0,0.0,0.0,0.0
1702023194148659874,306,1702023194148394823,base_link,0.011952249207376657,0.0006730432307386659,-0.9751219387145079,0.22134564687238342,0.0,0.0,0.0,0.0,0.0,0.0,0.0,0.0,0.0,0.0019025346264243126,-0.0018775798380374908,0.00048374198377132416,0.0,0.0,0.0,0.0,0.0,0.0,0.0,0.0,0.0,-0.18619233106085886,0.07195228263357821,9.797966895477755,0.0,0.0,0.0,0.0,0.0,0.0,0.0,0.0,0.0
1702023194152129944,307,1702023194151840448,base_link,0.011952249207376657,0.0006730432307386659,-0.9751219387145079,0.22134564687238342,0.0,0.0,0.0,0.0,0.0,0.0,0.0,0.0,0.0,-0.0002280455082654953,0.0013181641697883606,-0.001646772027015686,0.0,0.0,0.0,0.0,0.0,0.0,0.0,0.0,0.0,-0.22781868346075324,-0.007792989295896399,9.79734851461272,0.0,0.0,0.0,0.0,0.0,0.0,0.0,0.0,0.0
1702023194155335577,308,1702023194155061006,base_link,0.01195094786772831,0.0006780874897349977,-0.9751223494623993,0.22134389221604836,0.0,0.0,0.0,0.0,0.0,0.0,0.0,0.0,0.0,-0.0002280455082654953,0.0013181641697883606,-0.001646772027015686,0.0,0.0,0.0,0.0,0.0,0.0,0.0,0.0,0.0,-0.22781868346075324,-0.007792989295896399,9.79734851461272,0.0,0.0,0.0,0.0,0.0,0.0,0.0,0.0,0.0
1702023194159055549,309,1702023194158636569,base_link,0.01195094786772831,0.0006780874897349977,-0.9751223494623993,0.22134389221604836,0.0,0.0,0.0,0.0,0.0,0.0,0.0,0.0,0.0,-0.0012933854013681412,0.002383396029472351,-0.0016467534005641937,0.0,0.0,0.0,0.0,0.0,0.0,0.0,0.0,0.0,-0.20228848182823592,0.06249364459988309,9.797712687893243,0.0,0.0,0.0,0.0,0.0,0.0,0.0,0.0,0.0
1702023194162036653,310,1702023194161774158,base_link,0.011949526121610106,0.0006762374252258115,-0.9751227829310064,0.22134206499737696,0.0,0.0,0.0,0.0,0.0,0.0,0.0,0.0,0.0,-0.0012933854013681412,0.002383396029472351,-0.0016467534005641937,0.0,0.0,0.0,0.0,0.0,0.0,0.0,0.0,0.0,-0.20228848182823592,0.06249364459988309,9.797712687893243,0.0,0.0,0.0,0.0,0.0,0.0,0.0,0.0,0.0
1702023194165554979,311,1702023194165248394,base_link,0.011949526121610106,0.0006762374252258115,-0.9751227829310064,0.22134206499737696,0.0,0.0,0.0,0.0,0.0,0.0,0.0,0.0,0.0,-0.0034239888191223145,0.0002528652548789978,-0.000581471249461174,0.0,0.0,0.0,0.0,0.0,0.0,0.0,0.0,0.0,-0.22315768347755102,0.05075265643165796,9.797327432324087,0.0,0.0,0.0,0.0,0.0,0.0,0.0,0.0,0.0
1702023194168985549,312,1702023194168589115,base_link,0.01195473085508834,0.0006779046459305189,-0.9751235179873028,0.22133854052907231,0.0,0.0,0.0,0.0,0.0,0.0,0.0,0.0,0.0,-0.0034239888191223145,0.0002528652548789978,-0.000581471249461174,0.0,0.0,0.0,0.0,0.0,0.0,0.0,0.0,0.0,-0.22315768347755102,0.05075265643165796,9.797327432324087,0.0,0.0,0.0,0.0,0.0,0.0,0.0,0.0,0.0
1702023194172280303,313,1702023194171971797,base_link,0.01195473085508834,0.0006779046459305189,-0.9751235179873028,0.22133854052907231,0.0,0.0,0.0,0.0,0.0,0.0,0.0,0.0,0.0,-0.0023587998002767563,0.0013180989772081375,-0.0016467273235321045,0.0,0.0,0.0,0.0,0.0,0.0,0.0,0.0,0.0,-0.23138836738273316,0.006228627633117595,9.797265977181482,0.0,0.0,0.0,0.0,0.0,0.0,0.0,0.0,0.0
1702023194175335817,314,1702023194175099372,base_link,0.011956650020603955,0.0006829905737195197,-0.9751238942599969,0.2213367635242266,0.0,0.0,0.0,0.0,0.0,0.0,0.0,0.0,0.0,-0.0023587998002767563,0.0013180989772081375,-0.0016467273235321045,0.0,0.0,0.0,0.0,0.0,0.0,0.0,0.0,0.0,-0.23138836738273316,0.006228627633117595,9.797265977181482,0.0,0.0,0.0,0.0,0.0,0.0,0.0,0.0,0.0
1702023194178784967,315,1702023194178497552,base_link,0.011956650020603955,0.0006829905737195197,-0.9751238942599969,0.2213367635242266,0.0,0.0,0.0,0.0,0.0,0.0,0.0,0.0,0.0,0.0019022086635231972,0.00025282055139541626,-0.0005814582109451294,0.0,0.0,0.0,0.0,0.0,0.0,0.0,0.0,0.0,-0.18930214722837552,0.03413772530626496,9.798112027975883,0.0,0.0,0.0,0.0,0.0,0.0,0.0,0.0,0.0
1702023194181974316,316,1702023194181730031,base_link,0.011957397787744966,0.0006809530384309607,-0.9751243052066,0.22133491892706583,0.0,0.0,0.0,0.0,0.0,0.0,0.0,0.0,0.0,0.0019022086635231972,0.00025282055139541626,-0.0005814582109451294,0.0,0.0,0.0,0.0,0.0,0.0,0.0,0.0,0.0,-0.18930214722837552,0.03413772530626496,9.798112027975883,0.0,0.0,0.0,0.0,0.0,0.0,0.0,0.0,0.0
1702023194185461146,317,1702023194185175180,base_link,0.011957397787744966,0.0006809530384309607,-0.9751243052066,0.22133491892706583,0.0,0.0,0.0,0.0,0.0,0.0,0.0,0.0,0.0,0.000836886465549469,-0.0018777064979076385,0.0015490837395191193,0.0,0.0,0.0,0.0,0.0,0.0,0.0,0.0,0.0,-0.2666532762261591,0.015579744070915965,9.796359186037053,0.0,0.0,0.0,0.0,0.0,0.0,0.0,0.0,0.0
1702023194189040928,318,1702023194188669443,base_link,0.011955037314200292,0.0006809777312980485,-0.9751235935583398,0.2213381816090822,0.0,0.0,0.0,0.0,0.0,0.0,0.0,0.0,0.0,0.000836886465549469,-0.0018777064979076385,0.0015490837395191193,0.0,0.0,0.0,0.0,0.0,0.0,0.0,0.0,0.0,-0.2666532762261591,0.015579744070915965,9.796359186037053,0.0,0.0,0.0,0.0,0.0,0.0,0.0,0.0,0.0
1702023194192577631,319,1702023194192179679,base_link,0.011955037314200292,0.0006809777312980485,-0.9751235935583398,0.2213381816090822,0.0,0.0,0.0,0.0,0.0,0.0,0.0,0.0,0.0,-0.0023589879274368286,0.0002528242766857147,-0.002711961045861244,0.0,0.0,0.0,0.0,0.0,0.0,0.0,0.0,0.0,-0.22282083707511738,0.041758940592775476,9.79737756062538,0.0,0.0,0.0,0.0,0.0,0.0,0.0,0.0,0.0
1702023194195562518,320,1702023194195193529,base_link,0.011953823688447053,0.0006852022624278383,-0.975124035345035,0.22133628778286735,0.0,0.0,0.0,0.0,0.0,0.0,0.0,0.0,0.0,-0.0023589879274368286,0.0002528242766857147,-0.002711961045861244,0.0,0.0,0.0,0.0,0.0,0.0,0.0,0.0,0.0,-0.22282083707511738,0.041758940592775476,9.79737756062538,0.0,0.0,0.0,0.0,0.0,0.0,0.0,0.0,0.0
1702023194198857500,321,1702023194198566913,base_link,0.011953823688447053,0.0006852022624278383,-0.975124035345035,0.22133628778286735,0.0,0.0,0.0,0.0,0.0,0.0,0.0,0.0,0.0,-0.0023590419441461563,-0.0018777232617139816,0.0004838518798351288,0.0,0.0,0.0,0.0,0.0,0.0,0.0,0.0,0.0,-0.21698965054326316,-0.010173370912050932,9.797592152875186,0.0,0.0,0.0,0.0,0.0,0.0,0.0,0.0,0.0
1702023194202029052,322,1702023194201757907,base_link,0.011950246918305096,0.0006881646722794903,-0.9751245062221215,0.22133439722067375,0.0,0.0,0.0,0.0,0.0,0.0,0.0,0.0,0.0,-0.0023590419441461563,-0.0018777232617139816,0.0004838518798351288,0.0,0.0,0.0,0.0,0.0,0.0,0.0,0.0,0.0,-0.21698965054326316,-0.010173370912050932,9.797592152875186,0.0,0.0,0.0,0.0,0.0,0.0,0.0,0.0,0.0
1702023194205831205,323,1702023194205323934,base_link,0.011950246918305096,0.0006881646722794903,-0.9751245062221215,0.22133439722067375,0.0,0.0,0.0,0.0,0.0,0.0,0.0,0.0,0.0,-0.00022856704890727997,0.0013180449604988098,-0.0005814153701066971,0.0,0.0,0.0,0.0,0.0,0.0,0.0,0.0,0.0,-0.17619774269665076,0.036627961417382775,9.798347449846379,0.0,0.0,0.0,0.0,0.0,0.0,0.0,0.0,0.0
1702023194208842553,324,1702023194208484888,base_link,0.01195117153149368,0.0006881549691793607,-0.9751245258735968,0.22133426074956494,0.0,0.0,0.0,0.0,0.0,0.0,0.0,0.0,0.0,-0.00022856704890727997,0.0013180449604988098,-0.0005814153701066971,0.0,0.0,0.0,0.0,0.0,0.0,0.0,0.0,0.0,-0.17619774269665076,0.036627961417382775,9.798347449846379,0.0,0.0,0.0,0.0,0.0,0.0,0.0,0.0,0.0
1702023194212173665,325,1702023194211887359,base_link,0.01195117153149368,0.0006881549691793607,-0.9751245258735968,0.22133426074956494,0.0,0.0,0.0,0.0,0.0,0.0,0.0,0.0,0.0,-0.00022862106561660767,0.0013180244714021683,-0.001646675169467926,0.0,0.0,0.0,0.0,0.0,0.0,0.0,0.0,0.0,-0.19539288605239588,0.0015759275760607895,9.798051803115372,0.0,0.0,0.0,0.0,0.0,0.0,0.0,0.0,0.0
1702023194215343327,326,1702023194215074300,base_link,0.011947914406455335,0.0006869672158199814,-0.9751245937356565,0.22133414130958493,0.0,0.0,0.0,0.0,0.0,0.0,0.0,0.0,0.0,-0.00022862106561660767,0.0013180244714021683,-0.001646675169467926,0.0,0.0,0.0,0.0,0.0,0.0,0.0,0.0,0.0,-0.19539288605239588,0.0015759275760607895,9.798051803115372,0.0,0.0,0.0,0.0,0.0,0.0,0.0,0.0,0.0
1702023194218957109,327,1702023194218541145,base_link,0.011947914406455335,0.0006869672158199814,-0.9751245937356565,0.22133414130958493,0.0,0.0,0.0,0.0,0.0,0.0,0.0,0.0,0.0,0.0008366089314222336,-0.0018777605146169662,0.00048385560512542725,0.0,0.0,0.0,0.0,0.0,0.0,0.0,0.0,0.0,-0.2773701437741969,0.02270121001718984,9.796047695800917,0.0,0.0,0.0,0.0,0.0,0.0,0.0,0.0,0.0
1702023194222158880,328,1702023194221778631,base_link,0.011944287785503426,0.0006903377222090689,-0.9751238851039071,0.2213374485327519,0.0,0.0,0.0,0.0,0.0,0.0,0.0,0.0,0.0,0.0008366089314222336,-0.0018777605146169662,0.00048385560512542725,0.0,0.0,0.0,0.0,0.0,0.0,0.0,0.0,0.0,-0.2773701437741969,0.02270121001718984,9.796047695800917,0.0,0.0,0.0,0.0,0.0,0.0,0.0,0.0,0.0
1702023194225546030,329,1702023194225234985,base_link,0.011944287785503426,0.0006903377222090689,-0.9751238851039071,0.2213374485327519,0.0,0.0,0.0,0.0,0.0,0.0,0.0,0.0,0.0,0.0019018249586224556,-0.0008125137537717819,0.0004838705062866211,0.0,0.0,0.0,0.0,0.0,0.0,0.0,0.0,0.0,-0.21146506273201973,0.0015740204472680806,9.797718104217093,0.0,0.0,0.0,0.0,0.0,0.0,0.0,0.0,0.0
1702023194228654663,330,1702023194228410482,base_link,0.01194194657383698,0.000687602130091458,-0.975123564936932,0.22133899389856182,0.0,0.0,0.0,0.0,0.0,0.0,0.0,0.0,0.0,0.0019018249586224556,-0.0008125137537717819,0.0004838705062866211,0.0,0.0,0.0,0.0,0.0,0.0,0.0,0.0,0.0,-0.21146506273201973,0.0015740204472680806,9.797718104217093,0.0,0.0,0.0,0.0,0.0,0.0,0.0,0.0,0.0
1702023194232103129,331,1702023194231851100,base_link,0.01194194657383698,0.000687602130091458,-0.975123564936932,0.22133899389856182,0.0,0.0,0.0,0.0,0.0,0.0,0.0,0.0,0.0,-0.001294020563364029,0.003448471426963806,-0.0005813799798488617,0.0,0.0,0.0,0.0,0.0,0.0,0.0,0.0,0.0,-0.21662860605200865,0.05320788231352717,9.797460944974452,0.0,0.0,0.0,0.0,0.0,0.0,0.0,0.0,0.0
1702023194235314405,332,1702023194235073089,base_link,0.011942280289966026,0.0006888268384821004,-0.9751239701278993,0.2213371869819135,0.0,0.0,0.0,0.0,0.0,0.0,0.0,0.0,0.0,-0.001294020563364029,0.003448471426963806,-0.0005813799798488617,0.0,0.0,0.0,0.0,0.0,0.0,0.0,0.0,0.0,-0.21662860605200865,0.05320788231352717,9.797460944974452,0.0,0.0,0.0,0.0,0.0,0.0,0.0,0.0,0.0
1702023194239002728,333,1702023194238575220,base_link,0.011942280289966026,0.0006888268384821004,-0.9751239701278993,0.2213371869819135,0.0,0.0,0.0,0.0,0.0,0.0,0.0,0.0,0.0,-0.0002288278192281723,0.00025271065533161163,-0.000581374391913414,0.0,0.0,0.0,0.0,0.0,0.0,0.0,0.0,0.0,-0.19898400165640814,0.07235970266041876,9.79771245957523,0.0,0.0,0.0,0.0,0.0,0.0,0.0,0.0,0.0
1702023194242149926,334,1702023194241822957,base_link,0.01194047811745799,0.0006835465055564478,-0.9751228564780876,0.22134220682128394,0.0,0.0,0.0,0.0,0.0,0.0,0.0,0.0,0.0,-0.0002288278192281723,0.00025271065533161163,-0.000581374391913414,0.0,0.0,0.0,0.0,0.0,0.0,0.0,0.0,0.0,-0.19898400165640814,0.07235970266041876,9.79771245957523,0.0,0.0,0.0,0.0,0.0,0.0,0.0,0.0,0.0
1702023194245702352,335,1702023194245281219,base_link,0.01194047811745799,0.0006835465055564478,-0.9751228564780876,0.22134220682128394,0.0,0.0,0.0,0.0,0.0,0.0,0.0,0.0,0.0,0.0008364133536815643,0.00025268644094467163,0.000483902171254158,0.0,0.0,0.0,0.0,0.0,0.0,0.0,0.0,0.0,-0.23623968911891974,0.06922367043608686,9.796907618873231,0.0,0.0,0.0,0.0,0.0,0.0,0.0,0.0,0.0
1702023194248771693,336,1702023194248453855,base_link,0.011943180044588707,0.0006805753037605101,-0.9751228664511516,0.2213420262665179,0.0,0.0,0.0,0.0,0.0,0.0,0.0,0.0,0.0,0.0008364133536815643,0.00025268644094467163,0.000483902171254158,0.0,0.0,0.0,0.0,0.0,0.0,0.0,0.0,0.0,-0.23623968911891974,0.06922367043608686,9.796907618873231,0.0,0.0,0.0,0.0,0.0,0.0,0.0,0.0,0.0
1702023194252184952,337,1702023194251891613,base_link,0.011943180044588707,0.0006805753037605101,-0.9751228664511516,0.2213420262665179,0.0,0.0,0.0,0.0,0.0,0.0,0.0,0.0,0.0,-0.0034247152507305145,-0.0018778368830680847,0.002614455297589302,0.0,0.0,0.0,0.0,0.0,0.0,0.0,0.0,0.0,-0.25851635948116974,0.0344137634847679,9.796529231557646,0.0,0.0,0.0,0.0,0.0,0.0,0.0,0.0,0.0
1702023194255441122,338,1702023194255093336,base_link,0.01193811479774527,0.0006824289819358737,-0.9751217652488984,0.22134714509934975,0.0,0.0,0.0,0.0,0.0,0.0,0.0,0.0,0.0,-0.0034247152507305145,-0.0018778368830680847,0.002614455297589302,0.0,0.0,0.0,0.0,0.0,0.0,0.0,0.0,0.0,-0.25851635948116974,0.0344137634847679,9.796529231557646,0.0,0.0,0.0,0.0,0.0,0.0,0.0,0.0,0.0
1702023194258837101,339,1702023194258548736,base_link,0.01193811479774527,0.0006824289819358737,-0.9751217652488984,0.22134714509934975,0.0,0.0,0.0,0.0,0.0,0.0,0.0,0.0,0.0,-0.0012942440807819366,0.0002526901662349701,-0.0005813315510749817,0.0,0.0,0.0,0.0,0.0,0.0,0.0,0.0,0.0,-0.23203809753882082,0.041306912991406354,9.797165511525755,0.0,0.0,0.0,0.0,0.0,0.0,0.0,0.0,0.0
1702023194262010022,340,1702023194261742830,base_link,0.011941089548483731,0.0006772395322080529,-0.975122162332296,0.22134525126010404,0.0,0.0,0.0,0.0,0.0,0.0,0.0,0.0,0.0,-0.0012942440807819366,0.0002526901662349701,-0.0005813315510749817,0.0,0.0,0.0,0.0,0.0,0.0,0.0,0.0,0.0,-0.23203809753882082,0.041306912991406354,9.797165511525755,0.0,0.0,0.0,0.0,0.0,0.0,0.0,0.0,0.0
1702023194265400926,341,1702023194265158653,base_link,0.011941089548483731,0.0006772395322080529,-0.975122162332296,0.22134525126010404,0.0,0.0,0.0,0.0,0.0,0.0,0.0,0.0,0.0,-0.0012943129986524582,0.0002526901662349701,-0.0016465894877910614,0.0,0.0,0.0,0.0,0.0,0.0,0.0,0.0,0.0,-0.21521140995729474,0.013224738539157382,9.797627731002784,0.0,0.0,0.0,0.0,0.0,0.0,0.0,0.0,0.0
1702023194268925707,342,1702023194268567323,base_link,0.011941853188616885,0.000681739281660574,-0.9751225527807467,0.22134347614586097,0.0,0.0,0.0,0.0,0.0,0.0,0.0,0.0,0.0,-0.0012943129986524582,0.0002526901662349701,-0.0016465894877910614,0.0,0.0,0.0,0.0,0.0,0.0,0.0,0.0,0.0,-0.21521140995729474,0.013224738539157382,9.797627731002784,0.0,0.0,0.0,0.0,0.0,0.0,0.0,0.0,0.0
1702023194272429387,343,1702023194272015571,base_link,0.011941853188616885,0.000681739281660574,-0.9751225527807467,0.22134347614586097,0.0,0.0,0.0,0.0,0.0,0.0,0.0,0.0,0.0,-0.0012943707406520844,0.0013179238885641098,-0.0005813129246234894,0.0,0.0,0.0,0.0,0.0,0.0,0.0,0.0,0.0,-0.21927588092816838,-0.007820746723069323,9.797543412711365,0.0,0.0,0.0,0.0,0.0,0.0,0.0,0.0,0.0
1702023194275378815,344,1702023194275094509,base_link,0.011940135685538233,0.000687759779336079,-0.9751221986494638,0.2213451102855726,0.0,0.0,0.0,0.0,0.0,0.0,0.0,0.0,0.0,-0.0012943707406520844,0.0013179238885641098,-0.0005813129246234894,0.0,0.0,0.0,0.0,0.0,0.0,0.0,0.0,0.0,-0.21927588092816838,-0.007820746723069323,9.797543412711365,0.0,0.0,0.0,0.0,0.0,0.0,0.0,0.0,0.0
1702023194278804426,345,1702023194278526782,base_link,0.011940135685538233,0.000687759779336079,-0.9751221986494638,0.2213451102855726,0.0,0.0,0.0,0.0,0.0,0.0,0.0,0.0,0.0,-0.00022916123270988464,-0.0029431255534291267,0.0004839673638343811,0.0,0.0,0.0,0.0,0.0,0.0,0.0,0.0,0.0,-0.20704644216272733,0.064866446795742,9.797597874727655,0.0,0.0,0.0,0.0,0.0,0.0,0.0,0.0,0.0
1702023194282006830,346,1702023194281744241,base_link,0.011932709069137395,0.0006837094227342725,-0.9751223197440895,0.22134498985204593,0.0,0.0,0.0,0.0,0.0,0.0,0.0,0.0,0.0,-0.00022916123270988464,-0.0029431255534291267,0.0004839673638343811,0.0,0.0,0.0,0.0,0.0,0.0,0.0,0.0,0.0,-0.20704644216272733,0.064866446795742,9.797597874727655,0.0,0.0,0.0,0.0,0.0,0.0,0.0,0.0,0.0
1702023194285447046,347,1702023194285188913,base_link,0.011932709069137395,0.0006837094227342725,-0.9751223197440895,0.22134498985204593,0.0,0.0,0.0,0.0,0.0,0.0,0.0,0.0,0.0,-0.00022923387587070465,0.0013179183006286621,-0.0016465522348880768,0.0,0.0,0.0,0.0,0.0,0.0,0.0,0.0,0.0,-0.22411852911474325,0.027168399354611662,9.797399285676988,0.0,0.0,0.0,0.0,0.0,0.0,0.0,0.0,0.0
1702023194288783742,348,1702023194288462400,base_link,0.011937081810286526,0.0006894639254389808,-0.9751230804419679,0.22134138498418549,0.0,0.0,0.0,0.0,0.0,0.0,0.0,0.0,0.0,-0.00022923387587070465,0.0013179183006286621,-0.0016465522348880768,0.0,0.0,0.0,0.0,0.0,0.0,0.0,0.0,0.0,-0.22411852911474325,0.027168399354611662,9.797399285676988,0.0,0.0,0.0,0.0,0.0,0.0,0.0,0.0,0.0
1702023194292491534,349,1702023194292027950,base_link,0.011937081810286526,0.0006894639254389808,-0.9751230804419679,0.22134138498418549,0.0,0.0,0.0,0.0,0.0,0.0,0.0,0.0,0.0,-0.0023598335683345795,-0.0018778853118419647,0.0015492644160985947,0.0,0.0,0.0,0.0,0.0,0.0,0.0,0.0,0.0,-0.2136932072562643,0.008594034721322188,9.79766611779253,0.0,0.0,0.0,0.0,0.0,0.0,0.0,0.0,0.0
1702023194295416415,350,1702023194295115709,base_link,0.011934167844217927,0.0006941892836703301,-0.9751231261464443,0.22134132599559955,0.0,0.0,0.0,0.0,0.0,0.0,0.0,0.0,0.0,-0.0023598335683345795,-0.0018778853118419647,0.0015492644160985947,0.0,0.0,0.0,0.0,0.0,0.0,0.0,0.0,0.0,-0.2136932072562643,0.008594034721322188,9.79766611779253,0.0,0.0,0.0,0.0,0.0,0.0,0.0,0.0,0.0
1702023194298783360,351,1702023194298510551,base_link,0.011934167844217927,0.0006941892836703301,-0.9751231261464443,0.22134132599559955,0.0,0.0,0.0,0.0,0.0,0.0,0.0,0.0,0.0,-0.00022938288748264313,-0.0008126068860292435,-0.0005812570452690125,0.0,0.0,0.0,0.0,0.0,0.0,0.0,0.0,0.0,-0.234748549177215,0.039033481373898185,9.79711026303119,0.0,0.0,0.0,0.0,0.0,0.0,0.0,0.0,0.0
1702023194302299786,352,1702023194301887273,base_link,0.011928575751631067,0.0006921675061374133,-0.97512280882685,0.22134303171845193,0.0,0.0,0.0,0.0,0.0,0.0,0.0,0.0,0.0,-0.00022938288748264313,-0.0008126068860292435,-0.0005812570452690125,0.0,0.0,0.0,0.0,0.0,0.0,0.0,0.0,0.0,-0.234748549177215,0.039033481373898185,9.79711026303119,0.0,0.0,0.0,0.0,0.0,0.0,0.0,0.0,0.0
1702023194306000231,353,1702023194305450201,base_link,0.011928575751631067,0.0006921675061374133,-0.97512280882685,0.22134303171845193,0.0,0.0,0.0,0.0,0.0,0.0,0.0,0.0,0.0,0.002966390922665596,0.00025264546275138855,0.002614542841911316,0.0,0.0,0.0,0.0,0.0,0.0,0.0,0.0,0.0,-0.17665500973544748,0.008604797598074728,9.798403898849735,0.0,0.0,0.0,0.0,0.0,0.0,0.0,0.0,0.0
1702023194309005183,354,1702023194308583259,base_link,0.011922531818289383,0.0006851149047257604,-0.9751213626125772,0.22134975046111968,0.0,0.0,0.0,0.0,0.0,0.0,0.0,0.0,0.0,0.002966390922665596,0.00025264546275138855,0.002614542841911316,0.0,0.0,0.0,0.0,0.0,0.0,0.0,0.0,0.0,-0.17665500973544748,0.008604797598074728,9.798403898849735,0.0,0.0,0.0,0.0,0.0,0.0,0.0,0.0,0.0
1702023194312408353,355,1702023194312079191,base_link,0.011922531818289383,0.0006851149047257604,-0.9751213626125772,0.22134975046111968,0.0,0.0,0.0,0.0,0.0,0.0,0.0,0.0,0.0,0.0019010929390788078,0.0002526380121707916,0.00048401765525341034,0.0,0.0,0.0,0.0,0.0,0.0,0.0,0.0,0.0,-0.1941579909026207,0.027189246904013233,9.798038753721148,0.0,0.0,0.0,0.0,0.0,0.0,0.0,0.0,0.0
1702023194315442338,356,1702023194315174818,base_link,0.011924677174836798,0.0006896765130382963,-0.9751217971237801,0.22134770654938543,0.0,0.0,0.0,0.0,0.0,0.0,0.0,0.0,0.0,0.0019010929390788078,0.0002526380121707916,0.00048401765525341034,0.0,0.0,0.0,0.0,0.0,0.0,0.0,0.0,0.0,-0.1941579909026207,0.027189246904013233,9.798038753721148,0.0,0.0,0.0,0.0,0.0,0.0,0.0,0.0,0.0
1702023194318801809,357,1702023194318521738,base_link,0.011924677174836798,0.0006896765130382963,-0.9751217971237801,0.22134770654938543,0.0,0.0,0.0,0.0,0.0,0.0,0.0,0.0,0.0,-0.0012947823852300644,0.00025260262191295624,0.0004840400069952011,0.0,0.0,0.0,0.0,0.0,0.0,0.0,0.0,0.0,-0.24292125022351438,-0.0030939269431673445,9.796988297114881,0.0,0.0,0.0,0.0,0.0,0.0,0.0,0.0,0.0
1702023194322171877,358,1702023194321799993,base_link,0.011928437993647274,0.0006885771179968407,-0.9751217900499504,0.22134753849628544,0.0,0.0,0.0,0.0,0.0,0.0,0.0,0.0,0.0,-0.0012947823852300644,0.00025260262191295624,0.0004840400069952011,0.0,0.0,0.0,0.0,0.0,0.0,0.0,0.0,0.0,-0.24292125022351438,-0.0030939269431673445,9.796988297114881,0.0,0.0,0.0,0.0,0.0,0.0,0.0,0.0,0.0
1702023194325633922,359,1702023194325278282,base_link,0.011928437993647274,0.0006885771179968407,-0.9751217900499504,0.22134753849628544,0.0,0.0,0.0,0.0,0.0,0.0,0.0,0.0,0.0,-0.00342538021504879,-0.0008126553148031235,-0.0005812160670757294,0.0,0.0,0.0,0.0,0.0,0.0,0.0,0.0,0.0,-0.20544377079796472,0.03216336555093543,9.797793546250949,0.0,0.0,0.0,0.0,0.0,0.0,0.0,0.0,0.0
